timestamp[ns],ang_vel_x[rad/s],ang_vel_y[rad/s],ang_vel_z[rad/s],lin_acc_x[m/s^2],lin_acc_y[m/s^2],lin_acc_z[m/s^2]
1652274610771027456,-0.008968889713287354,0.0023977551609277725,0.01315575186163187,0.07597886776835658,-9.807035784447192,-0.2372888896079734
1652274610774027264,-0.009563534520566463,-0.0021181749179959297,0.012680425308644772,0.07793649550899863,-9.811840554380415,-0.24660295365918428
1652274610777029888,-0.005897955968976021,0.0009392666397616267,0.010755510069429874,0.07919844173621386,-9.805692553144693,-0.244822518249508
1652274610780029952,-0.007387782447040081,0.0001282276352867484,0.011010687798261642,0.07209583405624144,-9.798794025802612,-0.23827852169983088
1652274610783026944,-0.0036808073054999113,-0.0014883766416460276,0.013629328459501266,0.0599933585626306,-9.784869545346497,-0.23713521514991298
1652274610786026496,-0.004985642619431019,-0.0005580957513302565,0.011275474913418293,0.0746952485654503,-9.781292271381616,-0.24114021300757302
1652274610789023232,-0.0006895822007209063,-0.0006296180654317141,0.011097616516053677,0.07815549028823152,-9.78352163786888,-0.24246910525746643
1652274610792023040,-0.0015467549674212933,-0.0012606435921043158,0.012921450659632683,0.0797227122054901,-9.78980933983624,-0.23447041638744995
1652274610795020032,0.0019160548690706491,-0.0010300938738510013,0.012758878991007805,0.07644999697802123,-9.792390588501096,-0.22311151210302485
1652274610798019584,0.0034122297074645758,-0.001361492439173162,0.011941424570977688,0.0746755803171778,-9.785924607357382,-0.19540407855333758
1652274610801016576,0.00516901072114706,-9.375601075589657e-05,0.013631842099130154,0.07055049974380526,-9.796974409160017,-0.17811797617701813
1652274610804016640,0.005511120893061161,-0.0004082223167642951,0.013626005500555038,0.057501806608377955,-9.816191735327243,-0.1717237268289551
1652274610807013632,0.0043896157294511795,0.0016321588773280382,0.013972942717373371,0.05772061415794305,-9.817980372309684,-0.17038497077217324
1652274610810013440,0.004679766949266195,0.001977479550987482,0.015477299690246582,0.06859755274485796,-9.809192670220137,-0.16297520597232504
1652274610813010432,0.0067299120128154755,0.0021295719780027866,0.014454939402639866,0.06250661545861512,-9.8150039868474,-0.1489933236400131
1652274610816010240,0.004103738348931074,0.004316249396651983,0.014047074131667614,0.06116871335178148,-9.827740718823671,-0.13745368336066602
1652274610819006976,0.005565105006098747,0.00010766228660941124,0.01542135700583458,0.06837289084324147,-9.826354232901334,-0.12483231225921772
1652274610822006784,0.0042633493430912495,0.0010190586326643825,0.0133663946762681,0.0702605905862525,-9.814391407907008,-0.11892643094998784
1652274610825003776,0.004325293470174074,0.002957639517262578,0.014328258112072945,0.0758372171082301,-9.817312848311662,-0.1192343826543074
1652274610828003584,0.000500037451274693,0.0028649847954511642,0.015348550863564014,0.07740188630879856,-9.827559517037868,-0.10755506904278882
1652274610831000320,-0.002495218999683857,0.0010807181242853403,0.016552776098251343,0.0785777434214484,-9.820982476735114,-0.107212374818651
1652274610834000384,-0.002978632226586342,0.0013911809073761106,0.014195415191352367,0.07847836556704714,-9.812592249530553,-0.11611931937369517
1652274610836997376,-0.0021706135012209415,0.0009106408106163144,0.015672756358981133,0.07054170451599638,-9.808965875726937,-0.12336393847339786
1652274610839997184,-0.004924339707940817,0.000987555948086083,0.01793806254863739,0.09281672405367716,-9.813092600268124,-0.13315405907114036
1652274610842994432,-0.006967715919017792,0.00012802417040802538,0.01762869395315647,0.10122433165130205,-9.812377145475148,-0.14973808672586456
1652274610845994496,-0.009183743968605995,0.001680043525993824,0.016227342188358307,0.09828683516099117,-9.810159469425678,-0.1600975681767799
1652274610848991488,-0.010986516252160072,-0.00019681223784573376,0.016492828726768494,0.0939099261178635,-9.803859492498635,-0.1862147368603386
1652274610851991296,-0.012784820050001144,0.002436921466141939,0.017209451645612717,0.08205004090820439,-9.79851637790501,-0.22055804649423807
1652274610854994432,-0.012100025080144405,0.002352951094508171,0.01718909665942192,0.08736195664596744,-9.808340437304974,-0.23749128031227737
1652274610857994496,-0.011592956259846687,0.0006745305727235973,0.016894660890102386,0.08243526823297143,-9.806031575840711,-0.24660238740360363
1652274610860991744,-0.010258940048515797,-0.0007468520198017359,0.015389171428978443,0.08094581512650474,-9.810337164080142,-0.26890134950587524
1652274610863991808,-0.01002562791109085,0.0007171470206230879,0.016160277649760246,0.0781088016022928,-9.817142167919874,-0.29558893848853185
1652274610866989056,-0.006415419280529022,0.0008107525063678622,0.01479656808078289,0.06411323323792312,-9.822248551148176,-0.29898603358091785
1652274610869989120,-0.006667532026767731,0.0024952690582722425,0.015931960195302963,0.04398304827578831,-9.816268892216682,-0.29423321303064004
1652274610872986112,-0.002339083468541503,0.0038166611921042204,0.01537132915109396,0.0370103483025101,-9.808015443134307,-0.29655869683614
1652274610875986176,-0.0012476886622607708,0.0008798164781183004,0.0140150785446167,0.03434969827549066,-9.805727624458074,-0.30063339892914515
1652274610878983424,0.0028050262480974197,0.002745538018643856,0.01198558323085308,0.03632537084618816,-9.80957611657977,-0.28867862937711175
1652274610881983488,0.00530073419213295,0.0021458270493894815,0.013990400359034538,0.0393347932116827,-9.80472692298293,-0.2767591686004773
1652274610884980736,0.0077773998491466045,0.002424001693725586,0.014319091103971004,0.03495266457074322,-9.791174782970547,-0.25078780159577724
1652274610887980800,0.009383384138345718,0.003429205622524023,0.01087416335940361,0.040572595944907516,-9.79254957845509,-0.2156330659811385
1652274610890977792,0.013613845221698284,0.0014314403524622321,0.011788880452513695,0.046219995281309816,-9.792540810626745,-0.18879552886746823
1652274610893977600,0.016491932794451714,0.0018841465935111046,0.010545588098466396,0.042160659720795225,-9.79282781087458,-0.1548178376755677
1652274610896974848,0.01521582156419754,0.00045720033813267946,0.01217670924961567,0.05337856636564247,-9.785519533687829,-0.12988203339683824
1652274610899974656,0.014283522963523865,0.0007328104693442583,0.012728496454656124,0.06308489483718294,-9.78270272270143,-0.0988584793027956
1652274610902971648,0.010487709194421768,0.0010412121191620827,0.015182862989604473,0.059302668318152424,-9.78510978384316,-0.08386804098244756
1652274610905971712,0.009002607315778732,0.0034063325729221106,0.015010256320238113,0.07941388371833599,-9.791413852423428,-0.07963822139296681
1652274610908968704,0.0065399231389164925,0.002766780322417617,0.017189156264066696,0.08718229836327955,-9.796559983140229,-0.07941729951812886
1652274610911968512,0.003834798466414213,0.003943982534110546,0.017698217183351517,0.1019666379185859,-9.806243172764777,-0.09354724855162203
1652274610914965248,0.002882623113691807,0.004121019039303064,0.017679432407021523,0.1205915876832325,-9.823637375158071,-0.11321947887949645
1652274610917965312,-0.00019153380708303303,0.0021917889825999737,0.019625384360551834,0.11895781246894038,-9.84909681058526,-0.13607122515947556
1652274610920962304,0.00047630188055336475,0.0048347357660532,0.0199198629707098,0.11262589690051972,-9.854386733686923,-0.1563910966079682
1652274610923962112,-0.001546085812151432,0.0029113865457475185,0.02133946679532528,0.10566751999682746,-9.859454538470507,-0.1699269248063676
1652274610926959360,-0.00037346320459619164,0.0019106025574728847,0.02368084527552128,0.0742178768446669,-9.854639247143268,-0.15861602438213301
1652274610929959424,-0.0021048439666628838,-5.722418427467346e-05,0.021678244695067406,0.07362118959315121,-9.855298587834834,-0.15678363958951086
1652274610932962560,-0.005683675408363342,0.0004969995934516191,0.019576741382479668,0.06724679572302848,-9.85728362417221,-0.17894861831488088
1652274610935962624,-0.004134002141654491,-0.0008474350324831903,0.017550082877278328,0.06266744574324694,-9.850816473984718,-0.18766193999396635
1652274610938960128,-0.006923684850335121,0.0016606353456154466,0.016356606036424637,0.04956865268866531,-9.849606513673066,-0.18531775148799642
1652274610941960192,-0.010157759301364422,0.0004966607666574419,0.015777867287397385,0.033535920507460834,-9.840362884509563,-0.20852670457465572
1652274610944957184,-0.006263863295316696,0.001434270991012454,0.01405469048768282,0.03573259258480975,-9.826422037440539,-0.22403228020975366
1652274610947957504,-0.009011623449623585,-0.0003008682979270816,0.011899064294993877,0.04446965818237513,-9.817176070189475,-0.23447450804067774
1652274610950954752,-0.009025598876178265,-0.001599196926690638,0.011171441525220871,0.05813899026706349,-9.81621862333417,-0.2769779076513834
1652274610953954560,-0.006643326953053474,-0.0008528977050445974,0.010945265181362629,0.05907247629147023,-9.810072960186003,-0.3133929089928046
1652274610956951552,-0.004438592121005058,0.0010509358253329992,0.010757715441286564,0.06713992411533835,-9.801620773661137,-0.30697420105691997
1652274610959951616,-0.0028813329990953207,3.1095463782548904e-05,0.012292567640542984,0.07395519818733445,-9.791557644808291,-0.2927235208537429
1652274610962948608,0.0026327800005674362,-2.3371889255940914e-05,0.010317917913198471,0.08547806999497115,-9.792704476755857,-0.3056558302010409
1652274610965948672,0.003700542263686657,0.0020257015712559223,0.00963691994547844,0.07854684595968574,-9.80812182611823,-0.3096693949576467
1652274610968945920,0.00841556116938591,0.0003917519061360508,0.0103586595505476,0.0744612251804443,-9.815193371939658,-0.3083975118583068
1652274610971945984,0.00923449732363224,0.0016228428576141596,0.013036108575761318,0.08065365464636125,-9.80614848021865,-0.2881796668790281
1652274610974942976,0.012470174580812454,0.004123695194721222,0.010809062980115414,0.07946108386092819,-9.810775555497408,-0.2315479713357985
1652274610977943040,0.014149839989840984,0.002127287909388542,0.012460353784263134,0.061173531090794125,-9.839654443979263,-0.18982207716992125
1652274610980940288,0.013187920674681664,0.0031603039242327213,0.012765033170580864,0.03891047141896561,-9.85055227009058,-0.18560849632918833
1652274610983940096,0.0192217119038105,0.003785309847444296,0.015107661485671997,0.04727724468270317,-9.83535002478361,-0.1631494482943788
1652274610986937088,0.017376473173499107,0.0013094133464619517,0.015223001129925251,0.06128167220696341,-9.830776725518703,-0.131177269972302
1652274610989937152,0.01960613951086998,0.0030099949799478054,0.014191295020282269,0.04257081142426468,-9.858696998101472,-0.10335985497580841
1652274610992934400,0.017065228894352913,0.002076135715469718,0.012348352000117302,0.042845838106516744,-9.863919116663933,-0.08822350537874736
1652274610995934464,0.017053475603461266,-0.0008847816498018801,0.012291371822357178,0.04502849307495635,-9.847407542324065,-0.07974951801402494
1652274610998931712,0.017003856599330902,7.554655894637108e-05,0.011036437936127186,0.04642326733502559,-9.837314018332957,-0.07086237870457116
1652274611001931776,0.014737213961780071,0.00017787079559639096,0.011244709603488445,0.05131189332653303,-9.85118706086278,-0.05504847233924083
1652274611004928768,0.008576986379921436,-0.00037556159077212214,0.010632856748998165,0.08085504070366732,-9.865841024637222,-0.04517216672881041
1652274611007934720,0.005441340152174234,-6.1407918110489845e-06,0.010057569481432438,0.1056780322576873,-9.854151755887269,-0.04966818580669351
1652274611010937856,0.0009824183071032166,0.000553564983420074,0.01027008518576622,0.11029601091453804,-9.837109435671568,-0.05657267709868028
1652274611013938176,-0.004510683938860893,-0.0020426365081220865,0.010612858459353447,0.11017543500848113,-9.835848037433625,-0.07028310381215996
1652274611016935424,-0.009974719025194645,0.00022357160924002528,0.011478816159069538,0.12491949735232628,-9.8355943549335,-0.09195234404299407
1652274611019935232,-0.012792427092790604,-0.0014765950618311763,0.012841848656535149,0.13510921172690576,-9.837283623194693,-0.1285682108519133
1652274611022932480,-0.0174407996237278,-0.002066603396087885,0.01424497552216053,0.13282495498093774,-9.835430688804388,-0.18120041582966223
1652274611025932288,-0.019746555015444756,-0.0018468734342604876,0.015151365660130978,0.12301393772563897,-9.826171862071751,-0.24435232518818228
1652274611028929280,-0.019922524690628052,-0.0012546072248369455,0.014391577802598476,0.11028913364917971,-9.828851310414075,-0.29530190170807763
1652274611031929344,-0.017980234697461128,0.0016720062121748924,0.014021172188222408,0.099542579976283,-9.818706348496676,-0.33313480702340603
1652274611034926336,-0.017730562016367912,0.001061870250850916,0.01570618525147438,0.06691039880893658,-9.808122995162009,-0.3641250981686637
1652274611037926400,-0.01516907662153244,0.001039752271026373,0.015715667977929115,0.04180998311960138,-9.804966576957701,-0.3851563418900594
1652274611040923648,-0.013072879984974861,-0.0003611176216509193,0.014234296046197414,0.03244163388117449,-9.821889654707908,-0.38496162303555753
1652274611043923712,-0.009955666959285736,-0.0013039791956543922,0.012661985121667385,0.02862086316675413,-9.82115783330202,-0.39780912190992385
1652274611046920960,-0.005506133660674095,0.0011464800918474793,0.009950846433639526,0.006182710077034426,-9.821992530560493,-0.40281569802556183
1652274611049920768,-0.0006239309441298246,0.0018694298341870308,0.008866477757692337,-0.01392394388328539,-9.822862299132346,-0.3939314767589792
1652274611052918016,0.003910745959728956,0.000449682236649096,0.004535449203103781,0.0013300053531012962,-9.83684406273365,-0.37264823103789235
1652274611055917824,0.005603385623544455,-0.0003943117626477033,0.006143395323306322,0.013297680052480427,-9.84655764749646,-0.34916586783733217
1652274611058914816,0.008647696115076542,0.00019666858133859932,0.0045560006983578205,0.004454399292706511,-9.838784675407409,-0.3205097552606836
1652274611061914880,0.012204664759337902,0.0017621886217966676,0.001231405301950872,-0.003716164129052777,-9.822717337703704,-0.30681817024499175
1652274611064912128,0.016067588701844215,0.002366157714277506,0.0010079620406031609,0.004391351414544624,-9.823071557968854,-0.2736370910571888
1652274611067912192,0.019795313477516174,0.001104235532693565,0.0013516637263819575,0.031457114072563123,-9.828943664872646,-0.22614088812787084
1652274611070909440,0.02176656574010849,0.002426260383799672,-0.00012904556933790445,0.05241669449696783,-9.828255098086595,-0.16780242519937455
1652274611073909760,0.020500848069787025,0.0019518856424838305,0.0034654312767088413,0.07279437424703501,-9.813949509358405,-0.12378259314373134
1652274611076907008,0.021237686276435852,3.914744593203068e-05,0.0038060247898101807,0.09723454049592838,-9.811056126004457,-0.09089655137974768
1652274611079907072,0.016953257843852043,4.885531961917877e-05,0.006173467729240656,0.1192267564702779,-9.819612357425688,-0.0641877552122809
1652274611082904320,0.015179749578237534,0.002418922260403633,0.006132791750133038,0.11109406595705076,-9.826873288339376,-0.03371561075618956
1652274611085910272,0.010287272743880749,0.00262623792514205,0.009130940772593021,0.10290410143178887,-9.817310510224104,-0.0035838395613420285
1652274611088913408,0.007167735602706671,0.0005060750991106033,0.01056723389774561,0.11827914602239616,-9.798612239494918,-0.006370636718679452
1652274611091913472,0.004522024653851986,0.0014845584519207478,0.011144760064780712,0.11356311381855047,-9.81054525387287,-0.023380628992291166
1652274611094910464,0.0004884242080152035,0.0004576751380227506,0.012396025471389294,0.10461976450956426,-9.833097277420759,-0.019729997530253604
1652274611097910528,-0.005824592895805836,0.0016334723914042115,0.013906283304095268,0.09891863939166068,-9.83307857272029,-0.01224872583868564
1652274611100907776,-0.011058399453759193,0.0007756493287160993,0.012515738606452942,0.09158346506482921,-9.828514625805616,-0.01529795734147192
1652274611103907840,-0.017529137432575226,0.0003035268746316433,0.012443752959370613,0.07919715396142564,-9.842125802528857,-0.033374268238921645
1652274611106905344,-0.021997159346938133,0.002521455753594637,0.01110717561095953,0.07556298044384457,-9.865617737275361,-0.08219026222964748
1652274611109905408,-0.026310861110687256,-7.708312477916479e-05,0.013004891574382782,0.07292932117173913,-9.86472458782792,-0.14980747130080124
1652274611112902400,-0.028308896347880363,0.0006872079102322459,0.010619238018989563,0.05827638944375794,-9.859172798919678,-0.20951467443238941
1652274611115902464,-0.029114432632923126,0.0023324056528508663,0.011220477521419525,0.054009192419378085,-9.85575217682123,-0.2626161500228569
1652274611118899456,-0.029391461983323097,0.003187257330864668,0.0069922455586493015,0.04756301195467822,-9.84840473666787,-0.32765754465609787
1652274611121899264,-0.02884245477616787,0.002163344994187355,0.006822044495493174,0.046331821625330484,-9.836446587848663,-0.3839373945543542
1652274611124896256,-0.024071283638477325,0.0016087028197944164,0.006578853819519281,0.04435593670879025,-9.825585002094506,-0.4056678360536694
1652274611127896320,-0.020686263218522072,0.0016032519051805139,0.005522747989743948,0.040392604302079416,-9.804516495102643,-0.4187130494572222
1652274611130893312,-0.0158840324729681,0.0023058224469423294,0.005278679542243481,0.033781789593887515,-9.792233352112769,-0.43328258635122324
1652274611133893376,-0.010324724949896336,0.002948327921330929,0.0038797983434051275,0.03228290193879511,-9.797422737449407,-0.42516766895670444
1652274611136890624,-0.007982279174029827,0.00187782128341496,0.0028555907774716616,0.023891507973743134,-9.800969031754136,-0.40344533769860863
1652274611139890688,-0.00490254070609808,0.0020018815994262695,0.004705867264419794,0.012112910122657194,-9.792636087694763,-0.3861580662785098
1652274611142887680,0.0010266294702887535,0.003894967958331108,0.001679866574704647,0.013606161479762522,-9.793144037216901,-0.361028593458049
1652274611145887488,0.003590473672375083,0.002166148740798235,0.002482621930539608,-0.0061754857518040805,-9.794611187160015,-0.3398872404256835
1652274611148884736,0.009683648124337196,0.0011482813861221075,0.001937251421622932,-0.004156512610086065,-9.801437818309664,-0.3040921610808931
1652274611151884800,0.013656560331583023,0.003961844835430384,0.0023213927634060383,-0.0028213735679077216,-9.803815653356908,-0.27559863692112263
1652274611154881792,0.016774538904428482,0.0032830177806317806,0.0033564306795597076,0.004303480478613346,-9.799680745509267,-0.2481117690532468
1652274611157882112,0.019117552787065506,0.003390828613191843,0.0029720484744757414,0.015579167169338324,-9.80810312141776,-0.19554816319914534
1652274611160885248,0.020682739093899727,0.0031341819558292627,0.003418124746531248,0.02297300488933688,-9.82550433807373,-0.13134376737931744
1652274611163885568,0.020908400416374207,0.0013096038019284606,0.004311501979827881,0.03696207729754969,-9.832992063480615,-0.07119272490378935
1652274611166882816,0.02209925465285778,0.004411868751049042,0.004194344859570265,0.03988168193814345,-9.843419933992624,-0.025502443451853467
1652274611169882880,0.01676042005419731,0.0025426573120057583,0.005449621006846428,0.050573911607917396,-9.841119255834817,0.009709400636394274
1652274611172880128,0.013685974292457104,0.002204776043072343,0.00567507604137063,0.058328220095694994,-9.83736545625925,0.02505039796857163
1652274611175879936,0.01000275183469057,0.003024511504918337,0.006777993403375149,0.07110740297420416,-9.833474878561496,0.0397380813495256
1652274611178876928,0.004959774203598499,0.004631214775145054,0.008594952523708344,0.08472434728452935,-9.827933611047268,0.05493486959666479
1652274611181876992,0.0023248072247952223,0.0036636607255786657,0.010980721563100815,0.08734235689635388,-9.82389807192087,0.05521099682403728
1652274611184873984,-0.0036386954598128796,0.0010724132880568504,0.011433125473558903,0.10011444331379607,-9.820051917886733,0.04670709837824106
1652274611187874048,-0.010274311527609825,0.0030610018875449896,0.013135381042957306,0.10198369865124113,-9.825666835159062,0.010069329123123315
1652274611190871296,-0.014973336830735207,0.003872927976772189,0.014697050675749779,0.10956260947291739,-9.83072528759241,-0.01632912587847095
1652274611193871360,-0.02073274366557598,0.0019591276068240404,0.012881066650152206,0.12456782523728907,-9.836080677145718,-0.041785981189506126
1652274611196868608,-0.024885589256882668,0.002135029761120677,0.01435998734086752,0.12285960568045265,-9.842591081953048,-0.08494940647836774
1652274611199868672,-0.02969588339328766,0.003721675369888544,0.015947675332427025,0.0996606899306178,-9.841741187125443,-0.14456603611651808
1652274611202865920,-0.03283583000302315,0.0032631303183734417,0.014634747058153152,0.08257085904506967,-9.84353800741434,-0.20554058316964655
1652274611205865984,-0.03373384475708008,0.0023107281886041164,0.016267621889710426,0.07314353474457748,-9.84331472005248,-0.26741735802581534
1652274611208862976,-0.03340453281998634,0.0025849808007478714,0.014081400819122791,0.043838342575472776,-9.845394448935984,-0.3228513864833861
1652274611211863040,-0.03228333592414856,0.002280542626976967,0.01335988100618124,0.027362013078923334,-9.844446354430913,-0.3721399527221918
1652274611214860032,-0.028126850724220276,0.0038314468692988157,0.011363411322236061,0.0055007853776129195,-9.831161340922117,-0.40690000819712874
1652274611217859840,-0.024081412702798843,7.168343290686607e-05,0.009698725305497646,-0.0016009936112917785,-9.818395382851362,-0.43962139745131135
1652274611220857088,-0.018690869212150574,0.0025679604150354862,0.007938583381474018,-0.012427116896182996,-9.812676420682669,-0.47146359271816907
1652274611223857152,-0.011741897091269493,0.0020258643198758364,0.0070478711277246475,-0.0260425074285944,-9.80808675480485,-0.477026049150899
1652274611226854144,-0.008265208452939987,0.002655548509210348,0.0059380121529102325,-0.025453154100163373,-9.806417944809795,-0.47932530253659933
1652274611229854208,-0.002723412588238716,0.0021367643494158983,0.00588036235421896,-0.026868156014219855,-9.796983761510253,-0.46583943269345907
1652274611232851456,0.005730478558689356,0.0015000374987721443,0.004759551957249641,-0.03895135141862556,-9.79256769863367,-0.4479005654968321
1652274611235857664,0.012213161215186119,0.004082010593265295,0.0017719317693263292,-0.04119110230258666,-9.783805130985378,-0.41311468146089464
1652274611239859712,0.015622321516275406,0.003510615788400173,0.00010206061415374279,-0.012124760390655137,-9.786851074552535,-0.353251200922206
1652274611243858176,0.023555386811494827,0.0029531395994126797,0.0005195051780901849,0.005865178264438873,-9.79208488355279,-0.25160478053446855
1652274611246859264,0.02743452787399292,0.004595215432345867,0.002414593705907464,0.008355171874200458,-9.79963632184565,-0.16744614084130152
1652274611249857280,0.027103407308459282,0.005657527595758438,0.0028514929581433535,0.029745533514861016,-9.80614321952164,-0.09187540634926408
1652274611252858368,0.023993028327822685,0.005770587828010321,0.004618126433342695,0.05907648117973003,-9.815074129474162,-0.03079799257670529
1652274611255856384,0.02272067777812481,0.004472903907299042,0.005311846267431974,0.06838828020861838,-9.820812965387105,0.01899868301444221
1652274611258857216,0.01898818463087082,0.005961919203400612,0.006072801072150469,0.06783047736249864,-9.820648130214213,0.05033967816035729
1652274611261855232,0.016968965530395508,0.005839119665324688,0.007211650256067514,0.08420725547471083,-9.821707283878325,0.05776812482778914
1652274611264856576,0.011256339028477669,0.0033518981654196978,0.010901708155870438,0.09211629329989664,-9.831762229424715,0.07173587360347156
1652274611267854848,0.007889248430728912,0.0031523213256150484,0.01219597551971674,0.08142477601617575,-9.837449627411365,0.07824590851804242
1652274611270855936,0.0027539588045328856,0.004069291986525059,0.013069056905806065,0.08668468757206574,-9.83246131760478,0.07675373373152687
1652274611273854208,-0.0018652749713510275,0.0004893818404525518,0.017018772661685944,0.09775325800725258,-9.828265619480609,0.05567664614098612
1652274611276855296,-0.007112784776836634,0.00040085130603984,0.01619836688041687,0.07983988144490867,-9.838823253852128,0.03922565658167004
1652274611279853568,-0.01483671274036169,0.0008666536305099726,0.01645451970398426,0.06164685682412237,-9.852185424250363,0.02809853577610338
1652274611282854656,-0.017559994012117386,0.0025166552513837814,0.01802796497941017,0.07348592757461592,-9.848720378488302,-0.015526915250648744
1652274611285852928,-0.02387978881597519,0.0017951849149540067,0.018107937648892403,0.07175754657916258,-9.862028772872685,-0.07355322065716609
1652274611288854016,-0.029961854219436646,0.003800578648224473,0.01657533086836338,0.038133020773064345,-9.870736979985237,-0.13444011682630516
1652274611291852288,-0.032959867268800735,0.002711388748139143,0.018933551385998726,0.03609680680430028,-9.863927299970388,-0.21889928296916186
1652274611294853120,-0.031597960740327835,0.0022953355219215155,0.01649257354438305,0.03706248491512378,-9.85463690905571,-0.29156130867395547
1652274611297851392,-0.029910530894994736,0.0017190546495839953,0.015336248092353344,0.01144587589004659,-9.85234324516058,-0.35671449311859904
1652274611300852480,-0.025532066822052002,0.0021139858290553093,0.014342035166919231,0.008599256570561556,-9.838297184151411,-0.40058333586361256
1652274611303850496,-0.021502945572137833,-7.49117461964488e-05,0.012732953764498234,0.0056106572265649446,-9.80808675480485,-0.43188433692585676
1652274611306851584,-0.015956660732626915,0.0010667889146134257,0.012821929529309273,0.008148980635969201,-9.785802442282439,-0.4543002034060657
1652274611309849856,-0.01021108590066433,-0.0011433331528678536,0.010834774933755398,0.0042490120574846515,-9.765288062041998,-0.45774515622816975
1652274611312850944,-0.004849336110055447,-0.001235261675901711,0.008927097544074059,0.001946004089040798,-9.75310779490471,-0.4268127692826092
1652274611315854848,0.0012502777390182018,-0.0006710090674459934,0.006320160813629627,-0.030012660018447785,-9.749075178387761,-0.4230266383400187
1652274611318855936,0.003453201614320278,-0.00035446102265268564,0.005603666417300701,-0.04318271451122127,-9.735209150120616,-0.4362450163533911
1652274611321854208,0.011187382973730564,-0.0005214011180214584,0.004866996314376593,-0.010683418458944651,-9.741624862381816,-0.40521358948014674
1652274611324855040,0.019471364095807076,0.002427617786452174,0.0027609134558588266,-0.010210017377091572,-9.750285723221301,-0.36365284101441503
1652274611327853312,0.02035985141992569,0.001025706878863275,0.003880409523844719,-0.00014114091593946796,-9.771500360685586,-0.32932357817217706
1652274611330854400,0.02725166454911232,0.0008605747716501355,0.003523660358041525,0.023462608187319708,-9.78775708348155,-0.25391320360731334
1652274611333852416,0.030247334390878677,0.0031589616555720568,0.0017296579899266362,0.02518813507198356,-9.803470200920104,-0.19253497112412005
1652274611336853504,0.03000122494995594,0.002461499534547329,0.0027347677387297153,0.015643102675955742,-9.814138894450664,-0.14057767886640504
1652274611339851776,0.03177637234330177,0.003866093000397086,0.002289226744323969,0.03858902091225609,-9.831076000726222,-0.04613806631863117
1652274611342852864,0.028440289199352264,0.003362824209034443,0.004639488644897938,0.0772210955149494,-9.831743524724244,0.028647452062868978
1652274611345851136,0.025645241141319275,0.0029002537485212088,0.006525564938783646,0.0794856246471405,-9.835144273078441,0.043250016726925966
1652274611348852224,0.022543229162693024,0.003905742894858122,0.008236859925091267,0.07590534130784217,-9.823668939340115,0.0560328117680503
1652274611351850496,0.01934436522424221,0.0017647701315581799,0.008468040265142918,0.08743694897778331,-9.817257903254031,0.07408761979481204
1652274611354851584,0.01456738356500864,0.0019705514423549175,0.010022718459367752,0.09380768045294098,-9.819532862448693,0.07865366733502596
1652274611357849856,0.011667115613818169,0.0003431484510656446,0.011993126943707466,0.09786064563817344,-9.826177707290649,0.0777635135622695
1652274611360851200,0.0037187375128269196,0.0015323878033086658,0.012884354218840599,0.09219028098471463,-9.809549228572845,0.0712969752961304
1652274611363849472,0.0008209014777094126,0.00032676488626748323,0.014680206775665283,0.07337988251741044,-9.795127904510498,0.03058681806103559
1652274611366850560,-0.005792068317532539,0.0006428135093301535,0.015128515660762787,0.06496134710039478,-9.79881565311253,-0.02095937949500512
1652274611369849088,-0.008694697171449661,0.0003075759159401059,0.016376642510294914,0.08457785148592666,-9.813369663643837,-0.05180199666472617
1652274611372850432,-0.015560932457447052,0.001385476440191269,0.017396634444594383,0.08479160383446141,-9.818389537632465,-0.08189595545819028
1652274611375848704,-0.020595228299498558,0.002404505852609873,0.016166778281331062,0.05738322629658505,-9.817505740535259,-0.1573572016937658
1652274611378849792,-0.022023150697350502,-0.0007769191870465875,0.01841987669467926,0.044547837985120714,-9.820125567644833,-0.22977500684652477
1652274611381848320,-0.02048277109861374,-0.0014007288264110684,0.013920423574745655,0.04245304396322463,-9.840411984348297,-0.279837662730366
1652274611384849408,-0.022062132135033607,-0.0013654553331434727,0.014802459627389908,0.029909943996067157,-9.844754981988668,-0.33765005595814435
1652274611387847680,-0.02146057039499283,-0.00034213869366794825,0.012333439663052559,0.010901377766783116,-9.82464625993967,-0.39805798210445786
1652274611390854656,-0.017260771244764328,-0.00042782819946296513,0.01296747662127018,0.003959931162883004,-9.808265618503093,-0.4423034761421382
1652274611393859072,-0.012585429474711418,-0.00013992941239848733,0.009861459024250507,-0.00543738244806882,-9.804330617141723,-0.4611387441892177
1652274611396860672,-0.009211902506649494,0.0027574109844863415,0.0074906847439706326,-0.01478065889403224,-9.809823953860997,-0.4683701932800933
1652274611399859200,-0.004627201706171036,0.0017666502390056849,0.004511820152401924,-0.029138822626252656,-9.789470317140221,-0.44848099573329087
1652274611402860288,-0.0009514978155493736,-0.0003432666417211294,0.005187154747545719,-0.032780012689798604,-9.767330381524562,-0.43856286484170703
1652274611405858560,0.006228008307516575,0.0016443881904706359,0.00361238862387836,-0.02149438370413845,-9.76578549017012,-0.4338820866143331
1652274611408859648,0.011222717352211475,0.003098701126873493,0.002353104529902339,-0.022203299158473962,-9.769141814860701,-0.41867414221893995
1652274611411857664,0.016903189942240715,0.0025356640107929707,0.0018149284878745675,-0.021440306296187917,-9.756753457930683,-0.3836737751821056
1652274611414858752,0.02283753640949726,0.0008903238922357559,0.0033472920767962933,-0.004053496049839305,-9.736005853456259,-0.3327775910835713
1652274611417857024,0.02811283990740776,0.0008593302918598056,-0.00019184598932042718,0.002761675559579453,-9.746381701520084,-0.27303684187540783
1652274611420857856,0.031172016635537148,0.003053477732464671,0.0029528324957937002,0.00530604654433555,-9.76476257686317,-0.21279007937386632
1652274611423856128,0.032051365822553635,0.0008087425958365202,0.0028643570840358734,0.025970622652606107,-9.779949624601006,-0.16093421993032098
1652274611426857216,0.03156285360455513,0.003451310098171234,0.0012468365021049976,0.04899222277388908,-9.789384976944326,-0.09762180451415478
1652274611429855232,0.031177513301372528,0.0022681853733956814,0.0022955555468797684,0.05723689489476382,-9.801552969121932,-0.03921135862825904
1652274611432856064,0.02691228874027729,0.0038536672946065664,0.006204541772603989,0.06066628938813228,-9.823327578556537,0.005584484459803207
1652274611435854336,0.024487469345331192,0.005152380559593439,0.007601904682815075,0.07310254971364047,-9.840772049832344,0.025280051139136776
1652274611438855424,0.020079603418707848,0.0043681710958480835,0.007159129716455936,0.07525624801565427,-9.844101486515997,0.04518206706831697
1652274611441853696,0.016325753182172775,0.0022960430942475796,0.010293889790773392,0.07207283220656681,-9.848004923695326,0.056651651485869654
1652274611444855040,0.011622807942330837,0.004738432355225086,0.011760410852730274,0.08579669835693203,-9.856866275542973,0.047202727274922654
1652274611447853312,0.006126618944108486,0.0013032413553446531,0.012585753574967384,0.09499777615349739,-9.85851579631567,0.024873121155926492
1652274611450854400,0.0010893966536968946,0.0019909071270376444,0.01383476797491312,0.09236066911555826,-9.85752561623454,0.014025037629093276
1652274611453852416,-0.005481819622218609,0.0032800810877233744,0.014321046881377697,0.0891652980071958,-9.853361482292414,-0.005790209336331463
1652274611456853760,-0.010604466311633587,0.0015156641602516174,0.012476258911192417,0.09308555845716036,-9.842202959418296,-0.03738591503307689
1652274611459852032,-0.012501596473157406,-0.0007669168990105391,0.013177219778299332,0.08878913077171892,-9.83557681927681,-0.06880357387808617
1652274611462852864,-0.02251296117901802,0.0029981283005326986,0.011571574956178665,0.06393611853877082,-9.827768775874375,-0.11755617464324458
1652274611465851136,-0.025748295709490776,0.00018188389367423952,0.010430376045405865,0.055652023156383075,-9.815001648759841,-0.18757866389099506
1652274611468858368,-0.031616125255823135,0.0010408929083496332,0.009309712797403336,0.03826847458784468,-9.808493582040072,-0.27682761246049775
1652274611471862784,-0.029897842556238174,0.0020753166172653437,0.010944471694529057,0.0359649423192488,-9.807303495472668,-0.35041458925679325
1652274611474864128,-0.030037853866815567,0.0018207362154498696,0.007655154448002577,0.029613470383698586,-9.797839501556753,-0.42198980610556897
1652274611477862656,-0.02989678457379341,0.003445765469223261,0.005731712095439434,0.024327237076463643,-9.786584532570838,-0.47135355647243554
1652274611480863744,-0.023780107498168945,0.00010121858213096857,0.0058163926005363464,0.010204305730579653,-9.790065360423922,-0.509678282159008
1652274611483862016,-0.019139649346470833,0.0015808396274223924,0.004613982979208231,0.00028304965903407715,-9.788163910716772,-0.5380506093582138
1652274611486863104,-0.013605877757072449,0.0014093045610934496,0.0030309578869491816,0.0028872367409523577,-9.783535081872344,-0.5519689158018678
1652274611489861376,-0.0074003227055072784,0.00038927156128920615,0.0018751969328150153,-0.009885724176035728,-9.792626150822638,-0.5438118032334373
1652274611492862464,-0.0015272237360477448,0.0023297923617064953,0.0016368612414225936,-0.025828682014823422,-9.79271850528121,-0.5227354051960632
1652274611495860480,0.005975193344056606,0.004254461731761694,0.0008516040397807956,-0.033695794094156004,-9.797431505277752,-0.49087961979527023
1652274611498861568,0.01210997998714447,0.005629518069326878,-0.0005725683877244592,-0.043872509706555866,-9.795025028657912,-0.4352438034215942
1652274611501859840,0.017250914126634598,0.006220977753400803,-0.0011666371719911695,-0.06120146484391298,-9.787763513222336,-0.38200248096901923
1652274611504860672,0.023569893091917038,0.005907068494707346,-0.005017520394176245,-0.04605032866967376,-9.780089909854532,-0.30493264875933523
1652274611507858688,0.02589346282184124,0.005804387852549553,-0.0012508162762969732,-0.03126620374349877,-9.785658649897576,-0.2350581166149117
1652274611510859776,0.032723844051361084,0.005790984723716974,-0.005056667607277632,-0.012324790174514055,-9.796712543353438,-0.17018475375864653
1652274611513857792,0.031227750703692436,0.005354546010494232,-0.005612995475530624,0.00856086820962082,-9.798567815831303,-0.09184014323963784
1652274611516858624,0.03134912624955177,0.0054671503603458405,-0.004536221735179424,0.028134732750779948,-9.798203658694028,-0.03307072784823831
1652274611519856896,0.02896634303033352,0.005069276317954063,-0.0031180321238934994,0.04617510582681279,-9.804363350367545,0.019974702139478176
1652274611522857984,0.029073424637317657,0.006818065419793129,-0.0025672600604593754,0.05647148631310556,-9.81177742601633,0.07124498024741187
1652274611525856000,0.025057926774024963,0.00368071673437953,-0.0020600573625415564,0.062095929465605874,-9.814636907100677,0.09865469122584909
1652274611528856832,0.021835429593920708,0.004994579590857029,0.0040843007154762745,0.08143752589989453,-9.82462638619542,0.1221526812538039
1652274611531854848,0.014294943772256374,0.0030303774401545525,0.004914493300020695,0.10016258417130447,-9.82919734737277,0.14560054852971807
1652274611534855936,0.008377974852919579,0.0028688812162727118,0.007992137223482132,0.11992428288091905,-9.83365374225974,0.16047164391987026
1652274611537854208,0.0005771820433437824,0.0032499630469828844,0.007837322540581226,0.12211735421209595,-9.841883810466527,0.165791779496707
1652274611540855552,-0.008545665070414543,0.0038112441543489695,0.009779595769941807,0.13175812946702353,-9.842719676768779,0.15357231286019085
1652274611543853824,-0.018697567284107208,0.004234896507114172,0.01074490137398243,0.13877762544080613,-9.84102222520113,0.11036398898367769
1652274611546860800,-0.026692194864153862,0.0016541326185688376,0.011875075288116932,0.12516479561659508,-9.839341140246392,0.04386538127944804
1652274611549864960,-0.0332924984395504,0.0011453062761574984,0.012485465966165066,0.09653570804418996,-9.845901813936234,-0.04519563436936587
1652274611552866304,-0.0408247746527195,0.004027441143989563,0.01138075441122055,0.07250211330219171,-9.8410748321712,-0.1568647602680139
1652274611555864832,-0.044924359768629074,0.0052466802299022675,0.011954981833696365,0.054334213989507406,-9.823834943556784,-0.2638743333904072
1652274611558865920,-0.04239499196410179,0.006490990985184908,0.0098689841106534,0.025314658944925756,-9.817976865178347,-0.3607965748004615
1652274611561864192,-0.04092058911919594,0.003289512125775218,0.010601514019072056,0.010740295178757514,-9.807646025300025,-0.44630617244485765
1652274611564869632,-0.03719823434948921,0.00402602506801486,0.007630153093487024,-0.0006153300177815254,-9.802276022699475,-0.5099963716648519
1652274611567872000,-0.030832847580313683,0.003824682906270027,0.006180617026984692,-0.024820781330624594,-9.802871065983176,-0.5544921141365543
1652274611570872832,-0.02537192590534687,0.004277775064110756,0.005591481924057007,-0.044068808596790764,-9.792546071323752,-0.573719815567322
1652274611573870848,-0.019521858543157578,0.002876655198633671,0.0018823996651917696,-0.05164018913256004,-9.79434113804698,-0.583832409585081
1652274611576871680,-0.013076474890112877,0.0030414252541959286,-0.0006389837362803519,-0.05650913317606318,-9.795726454925537,-0.583644595395401
1652274611579869696,-0.004741090815514326,0.004269628319889307,-0.004822447896003723,-0.06032627574484795,-9.801001180458067,-0.5682318126102909
1652274611582870528,0.0021918676793575287,0.0050602625124156475,-0.008417312055826187,-0.06073478348050266,-9.78900796032548,-0.5311271667705848
1652274611585868800,0.007731976918876171,0.004426321480423212,-0.00797282438725233,-0.06743722199490293,-9.783346865823864,-0.501842620097287
1652274611588869632,0.017447184771299362,0.006066434551030397,-0.00988687202334404,-0.06684673615531064,-9.768329329434037,-0.46215215901546175
1652274611591867648,0.025119740515947342,0.005314241163432598,-0.008734778501093388,-0.03556029334138147,-9.75903250877857,-0.396105423264578
1652274611594868736,0.03180680423974991,0.005468868650496006,-0.010890716686844826,-0.02106706852002535,-9.757032274872063,-0.30724140062574296
1652274611597866752,0.03459447622299194,0.004293035715818405,-0.0101740388199687,-0.008795192988726193,-9.758892223525047,-0.2198603100210428
1652274611600867584,0.037884701043367386,0.004866167437285185,-0.008890051394701004,0.029715976343525106,-9.767947052118181,-0.12368005521786399
1652274611603865600,0.04023139923810959,0.005533530376851559,-0.009222091175615788,0.04331178425098769,-9.782257317021488,-0.03130127962345723
1652274611606866688,0.03717576712369919,0.0038013490848243237,-0.007501775864511728,0.04390895555969328,-9.79167104205489,0.04372305476588662
1652274611609864704,0.03461417555809021,0.007266060449182987,-0.004082176368683577,0.0587125706376275,-9.799984112370014,0.09739834362235851
1652274611612865536,0.029463861137628555,0.003991229459643364,-0.0013879851903766394,0.08232259250557981,-9.815245978909731,0.15020042527429758
1652274611615863808,0.0230005644261837,0.006149670109152794,8.657877333462238e-05,0.09423663732158019,-9.837637843459843,0.19431389043014496
1652274611618864896,0.018178630620241165,0.007565599400550127,0.0018458019476383924,0.10136693672607652,-9.854998143583536,0.21848977058650926
1652274611621868800,0.011951141059398651,0.0065876152366399765,0.0035875565372407436,0.11831725867623463,-9.86683237376213,0.22643915868839248
1652274611624869632,0.0035173324868083,0.006864598952233791,0.006567446980625391,0.11347862300602718,-9.875819982337951,0.22592235000636426
1652274611627867904,-0.004081793129444122,0.007742006331682205,0.008306163363158703,0.10284971349658444,-9.876761062580346,0.2205343550913967
1652274611630868992,-0.011735149659216404,0.005836015567183495,0.008985115215182304,0.10229643612853251,-9.866171864026784,0.17726274758717045
1652274611633867008,-0.02105782926082611,0.005182948894798756,0.008996239863336086,0.10695097480295225,-9.865721782171725,0.1154850674576126
1652274611636867840,-0.030126750469207764,0.004442828707396984,0.01001152116805315,0.11929634197461418,-9.872696297359466,0.04602540429097134
1652274611639865856,-0.03585755452513695,0.0023997854441404343,0.010493754409253597,0.08067719078557566,-9.860371068793535,-0.02436967199568171
1652274611642866688,-0.04587382450699806,0.005355107598006725,0.007195868995040655,0.04795066413197201,-9.824544553130865,-0.09889479272519237
1652274611645864704,-0.04868098720908165,0.0006769686006009579,0.009307915344834328,0.06237883349363692,-9.797115278935431,-0.20602306945696472
1652274611648865792,-0.05170527845621109,0.0011343612568452954,0.008376800455152988,0.0416394762577489,-9.790244224122166,-0.3521001311909407
1652274611651863808,-0.049875788390636444,0.001994125545024872,0.006805290933698416,0.0018653018231794703,-9.782825472298263,-0.49748723789937793
1652274611654864640,-0.04564590007066727,0.0039020301774144173,0.005068962927907705,0.01738102096802322,-9.78126772146225,-0.5918194628162309
1652274611657862400,-0.038411833345890045,0.00715859979391098,0.005587068852037191,0.030050126501603516,-9.799127787801623,-0.6527367632567882
1652274611660863232,-0.030149701982736588,0.006424078717827797,0.0003560928162187338,-0.00942505014501512,-9.821050281274319,-0.6770083040736615
1652274611663861248,-0.020693594589829445,0.00391862727701664,0.0003252328315284103,-0.02991566820066655,-9.826475813454389,-0.6866024271752685
1652274611666862080,-0.00895651988685131,0.004136881325393915,-0.0023846994154155254,-0.03935979522219859,-9.808650233906507,-0.7025573905456811
1652274611669860096,0.0014090572949498892,0.0024228079710155725,-0.0027577895671129227,-0.05469212404908612,-9.801908358430861,-0.7151679388590156
1652274611672860928,0.012714138254523277,0.005651149898767471,-0.005957042332738638,-0.07116199183880817,-9.803802793875336,-0.6630598582200705
1652274611675858944,0.020362259820103645,0.006933771539479494,-0.009146712720394135,-0.10027372552873566,-9.796234988969564,-0.5897308565065265
1652274611678859776,0.03291857987642288,0.007707425393164158,-0.012267992831766605,-0.0961521703530103,-9.786462367495893,-0.49039026537574826
1652274611681857792,0.03921740502119064,0.007613003719598055,-0.01421337015926838,-0.056856836935458704,-9.811360077387095,-0.367890368986316
1652274611684858624,0.04211680218577385,0.004834115505218506,-0.016148071736097336,-0.03956756535451859,-9.825527718949317,-0.25236542617604135
1652274611687856640,0.048866722732782364,0.00619846023619175,-0.016438616439700127,-0.014884420662606134,-9.82486837825775,-0.14090887444899416
1652274611690857728,0.05183099955320358,0.005671660881489515,-0.01857496052980423,0.015878703813406173,-9.809744458884,-0.04299385000877082
1652274611693855744,0.05105902627110481,0.007061418611556292,-0.017665445804595947,0.037561518195155075,-9.799937350618839,0.043881715926318426
1652274611696856576,0.044514041393995285,0.0066976286470890045,-0.01447993516921997,0.048694043544912705,-9.792279529342055,0.13122368466360493
1652274611699860480,0.04434368014335632,0.007077239453792572,-0.013562790118157864,0.07940218414738774,-9.792591664031148,0.19860097489850595
1652274611702861568,0.03684086725115776,0.004122670739889145,-0.010686268098652363,0.1192826970417518,-9.801604407048226,0.2481130111622624
1652274611705859584,0.030264928936958313,0.004403149243444204,-0.007558359298855066,0.13081674783052877,-9.832975696867704,0.29992057448467235
1652274611708860416,0.02359027974307537,0.0025968998670578003,-0.0025446475483477116,0.14813392119854688,-9.853175604331494,0.32886922200080004
1652274611711858432,0.014700486324727535,0.0020905816927552223,0.0016279473202303052,0.16982806754177435,-9.870926365077494,0.32386428985297677
1652274611714859520,0.0041750697419047356,0.0027995200362056494,0.003972282633185387,0.17627972789919003,-9.882789821350574,0.29701972021032125
1652274611717857536,-0.006013019010424614,0.005396601743996143,0.005788510199636221,0.19543140495168043,-9.88624902189374,0.26751163044683635
1652274611720858368,-0.016030525788664818,0.0024238803889602423,0.006948865484446287,0.19369398669982327,-9.887336232608556,0.24291436480693518
1652274611723856384,-0.02917313203215599,0.003255407093092799,0.010740386322140694,0.1653958207153715,-9.890254165881872,0.18669289403241127
1652274611726857216,-0.03763365000486374,0.0024807059671729803,0.008441206067800522,0.14338602341855874,-9.901990196382998,0.09319659021673724
1652274611729855232,-0.05203327536582947,0.002112487331032753,0.010524093173444271,0.09912615379565395,-9.886914207804203,-0.019260541971155908
1652274611732856320,-0.05373062565922737,0.0019676703959703445,0.009340550750494003,0.0597710164822638,-9.859510652571917,-0.1667631452795118
1652274611735854336,-0.05411067605018616,0.002291627461090684,0.008919009938836098,0.021110948760947212,-9.844739784419536,-0.3203017385331914
1652274611738855168,-0.054995097219944,0.0021096200216561556,0.00754677876830101,-0.0059986684509960465,-9.83277695942521,-0.47037948727589096
1652274611741853184,-0.04865741729736328,0.00196435465477407,0.0038863462395966053,-0.0037285795109870375,-9.813423439657688,-0.5786311876801774
1652274611744854272,-0.04132268577814102,0.0019187100697308779,0.0009044141625054181,-0.03132556011476554,-9.802927180084586,-0.6513730006229133
1652274611747852544,-0.03254900127649307,0.000160621217219159,-0.00039132239180617034,-0.06520597407780587,-9.794830967390537,-0.6922917979232966
1652274611750853632,-0.02243703603744507,0.001020682044327259,-0.0057146246545016766,-0.05003544821650721,-9.795307352730632,-0.7159214606400579
1652274611753851904,-0.013635752722620964,-0.003954053390771151,-0.008736616000533104,-0.0453781147968024,-9.798197228953242,-0.7325633833613246
1652274611756852992,-0.006267242133617401,-1.6971782315522432e-05,-0.012090271338820457,-0.07839090647930279,-9.808045838272571,-0.7440306068584323
1652274611759851264,0.00124940718524158,0.004053156822919846,-0.014277385547757149,-0.0907048008004669,-9.803650233662127,-0.7271376319855452
1652274611762852096,0.0127212293446064,0.0008184463949874043,-0.015235446393489838,-0.06621106860027648,-9.795510766348242,-0.6940791197314858
1652274611765850368,0.022384312003850937,0.002618510043248534,-0.0190691240131855,-0.06563192157202866,-9.795075297540425,-0.6517350388683378
1652274611768851456,0.032704971730709076,0.0050709606148302555,-0.018545817583799362,-0.0490715259546414,-9.803579506513476,-0.5630917828407138
1652274611771849472,0.04534144327044487,0.0029450205620378256,-0.017716482281684875,-0.007740060766716487,-9.808834942823648,-0.43424569576233624
1652274611774856448,0.053527891635894775,0.002898616250604391,-0.017839888110756874,0.029733400119072755,-9.81261563040614,-0.29349797582495957
1652274611777860864,0.05704285949468613,0.0015637107426300645,-0.01643357239663601,0.03052223752537975,-9.81946155077815,-0.15545684796515852
1652274611780862464,0.05787823721766472,0.00039303157245740294,-0.016125839203596115,0.02112207522644894,-9.813142869150639,-0.03671228095467668
1652274611783861248,0.05349556356668472,0.0008017719956114888,-0.014190882444381714,0.04591613979679532,-9.795691968134046,0.07176211315642576
1652274611786862592,0.048218246549367905,0.000878548133186996,-0.011305822059512138,0.06364942425161134,-9.792373637366294,0.14988973362362012
1652274611789860864,0.04382610321044922,0.0006406736210919917,-0.009786074981093407,0.06871390456694644,-9.793723298409581,0.2320760503305122
1652274611792861952,0.0379677452147007,-0.0005916812806390226,-0.00921450462192297,0.0989237356918864,-9.802051566293835,0.3046212264562957
1652274611795859968,0.03136773779988289,-0.001589189749211073,-0.004361981526017189,0.13224344703224486,-9.814878899163007,0.3328040406990796
1652274611798861056,0.024510540068149567,-0.0049092392437160015,-0.0051019382663071156,0.13699313491052015,-9.840123230534791,0.3448014986153692
1652274611801859072,0.015166189521551132,-0.0029322493355721235,-0.00035226927138864994,0.13997119174008257,-9.859940860682725,0.35287089636772867
1652274611804859904,0.002237673383206129,-0.004334364086389542,0.0009581101476214826,0.15522632714491336,-9.866127440363169,0.3179601073104888
1652274611807858176,-0.008364559151232243,-0.005173857323825359,0.0034989698324352503,0.17352732391851022,-9.867179579764604,0.2713618761342019
1652274611810859264,-0.019076962023973465,-0.0037198825739324093,0.005502651445567608,0.18659546153992412,-9.88678795107603,0.22044059412702915
1652274611813857280,-0.030469289049506187,-0.0018716505728662014,0.006860514171421528,0.17937162949992344,-9.899344650310278,0.14143137308629228
1652274611816858112,-0.0372144840657711,-0.0029809477273374796,0.0065537611953914165,0.1370458240789827,-9.909154096662997,0.028465037850802764
1652274611819856384,-0.045726384967565536,-0.004609196912497282,0.007263410370796919,0.10540109674613922,-9.905504341983795,-0.07954692638032138
1652274611822857472,-0.05218154191970825,-0.0007908889092504978,0.007969444617629051,0.09156730851447209,-9.896333193534613,-0.20958563904305919
1652274611825855488,-0.05512386932969093,0.0002682277699932456,0.009056612849235535,0.06155446126635652,-9.87466613612771,-0.35614831060320135
1652274611828856576,-0.05270213633775711,-0.0015870430506765842,0.005652000196278095,0.04597967001968063,-9.847823721909522,-0.4832535453636199
1652274611831854848,-0.04931127652525902,-0.0007529798895120621,0.0057321032509207726,0.016923229588899993,-9.817228677159548,-0.5822839380340651
1652274611834855936,-0.040956586599349976,-0.0020817876793444157,0.003426128067076206,-0.017715037553716683,-9.786807235410809,-0.6680841891881079
1652274611837853952,-0.030691007152199745,-0.0045040627010166645,0.0004607108421623707,-0.05397501615514047,-9.77065689559877,-0.7128777090299874
1652274611840855296,-0.020537931472063065,-0.002976357936859131,-0.0017638999270275235,-0.07513449849924073,-9.76856722984314,-0.7267506784945726
1652274611843853568,-0.013087853789329529,-0.003034630324691534,-0.006279848515987396,-0.0738171551232459,-9.765803025826811,-0.7279669954817741
1652274611846854656,-0.004590828437358141,-0.002496727742254734,-0.01119060255587101,-0.07123343594009056,-9.761394561734795,-0.7162069995831698
1652274611849852928,0.0031056106090545654,-0.002377196680754423,-0.012596028856933117,-0.08726069736173377,-9.765290400129556,-0.6813844733312726
1652274611852859904,0.01147704292088747,-0.0017015965422615409,-0.01648983731865883,-0.09028447476285509,-9.773699332034587,-0.6432441277682781
1652274611855864064,0.01962452009320259,-0.0008706016233190894,-0.01987299881875515,-0.07925041851862333,-9.776531340590118,-0.5812711077297106
1652274611858865408,0.0307773407548666,-0.002061303937807679,-0.017584362998604774,-0.060166751501313405,-9.789643335619568,-0.5029879176748916
1652274611861864192,0.03930647298693657,-0.002352699637413025,-0.02072027511894703,-0.028160575011512264,-9.800859141638874,-0.39713589882347733
1652274611864865280,0.047366298735141754,-0.002967448439449072,-0.020474469289183617,-0.002519038182799704,-9.823907424271106,-0.27115798759255555
1652274611867863552,0.05023930221796036,-0.004943334497511387,-0.02006216160953045,0.03631799810719676,-9.833408243066073,-0.15844032075535505
1652274611870864640,0.04885721579194069,-0.0012021568836644292,-0.01763889566063881,0.06100908864354714,-9.835486802905798,-0.056575051718857135
1652274611873863168,0.04741731286048889,-0.0031662648543715477,-0.014182932674884796,0.0817737903832458,-9.83013141335249,0.03208756887965137
1652274611876864256,0.04549466818571091,-0.0023298002779483795,-0.013668159954249859,0.092877486930741,-9.819676654833554,0.11092822613716125
1652274611879862528,0.04298616573214531,-0.0029491852037608624,-0.009498532861471176,0.10328968494958243,-9.80741338558793,0.19059297021087257
1652274611882863872,0.0355437770485878,-0.0027485520113259554,-0.007400732021778822,0.11889082991364411,-9.814498959934712,0.26150331167643887
1652274611885862144,0.02825787290930748,-0.0029064486734569073,-0.00256445724517107,0.13594884088882245,-9.828203660160302,0.305605963177327
1652274611888863232,0.021610932424664497,-0.005002706311643124,-0.0011869324371218681,0.13858769235927612,-9.8380937705338,0.32712325511630624
1652274611891861248,0.012864699587225914,-0.004113997798413038,0.002909129485487938,0.1474745074417442,-9.84926515288949,0.3187782187603414
1652274611894862336,0.00110998610034585,-0.005413309205323458,0.006535895634442568,0.16445653057126328,-9.864079275661707,0.2984019500826485
1652274611897860608,-0.010403758846223354,-0.00602762820199132,0.005474179983139038,0.17325857171341777,-9.868668941539525,0.26994207246415314
1652274611900861440,-0.0200917087495327,-0.003491900395601988,0.006702891550958157,0.16058040152397005,-9.871673384052514,0.21499798294799402
1652274611903859712,-0.03135357052087784,-0.005418509244918823,0.007905829697847366,0.13803835138082504,-9.873561389756203,0.13192672749958
1652274611906860800,-0.037890370935201645,-0.006346763577312231,0.006286019925028086,0.10213219461068511,-9.882105930739641,0.01860764243681915
1652274611909858816,-0.04651958495378494,-0.005365703254938126,0.00624591950327158,0.08028010862623342,-9.884088628989458,-0.11419818771854043
1652274611912859648,-0.049449339509010315,-0.005829584784805775,0.006589582189917564,0.07772728233826347,-9.887333894520998,-0.24949341440368442
1652274611915857664,-0.051350098103284836,-0.0029039967339485884,0.0044960444793105125,0.06549282819516956,-9.87294881081581,-0.3748943659968674
1652274611918858496,-0.049702659249305725,-0.004086866043508053,0.004844582173973322,0.05111820651849266,-9.860240135890244,-0.490928062046878
1652274611921856512,-0.04267645999789238,-0.00440274877473712,0.004095558542758226,0.017840120671532348,-9.842705648243427,-0.5915623827826232
1652274611924857600,-0.038860172033309937,-0.0032236073166131973,-0.00076327781425789,-0.015048413301992695,-9.812704477733373,-0.6605903263013809
1652274611927855616,-0.030394043773412704,-0.005809007678180933,-0.001218584249727428,-0.03971919855254236,-9.787249718481302,-0.6874155701890587
1652274611930862592,-0.022433362901210785,-0.004571385681629181,-0.0037082459311932325,-0.04239377435692586,-9.777139243355393,-0.7125564411863684
1652274611933866752,-0.015186194330453873,-0.00490462826564908,-0.009155415929853916,-0.03664440563352545,-9.762133397403359,-0.7225774844631552
1652274611936868352,-0.00862054992467165,-0.0029529770836234093,-0.01267942599952221,-0.05768180281778332,-9.763172092801332,-0.7002031555697321
1652274611939866880,-0.002010864205658436,-0.0011954347137361765,-0.014030172489583492,-0.07272781181684694,-9.75470996940434,-0.667903352728486
1652274611942867968,0.008258859626948833,0.0003378306282684207,-0.017635829746723175,-0.06953185618659481,-9.76903192474544,-0.6203714939638972
1652274611945865984,0.016286911442875862,3.578281030058861e-05,-0.0162576325237751,-0.06844530762548093,-9.78195395016074,-0.5638732155419885
1652274611948867072,0.02662784606218338,-0.000943918654229492,-0.01854599453508854,-0.03281178008452989,-9.785558112132549,-0.48667851484362035
1652274611951865088,0.0337747298181057,-0.0017653771210461855,-0.020816432312130928,-0.012827455025113885,-9.792675250661372,-0.38534097774196413
1652274611954866176,0.04084387421607971,-0.0016455762088298798,-0.01923552341759205,0.0026201427742285886,-9.808949509114026,-0.2643890414468944
1652274611957864448,0.045388851314783096,0.0003876047267112881,-0.018562139943242073,0.030936935256514697,-9.823278478717803,-0.15432093927040696
1652274611960865536,0.044255733489990234,-0.003134706523269415,-0.015635650604963303,0.04798674465892836,-9.834323604345322,-0.03771407384178601
1652274611963863552,0.041509952396154404,0.001617862144485116,-0.015075505711138248,0.05645886429355014,-9.831847569620608,0.057022439293330535
1652274611966867712,0.039905983954668045,-0.0030524551402777433,-0.015509167686104774,0.08119571650065481,-9.828144038927555,0.13515130643611772
1652274611969869312,0.03458087146282196,-0.002665087813511491,-0.010546619072556496,0.11074885098226368,-9.82915759988427,0.20167294795606283
1652274611972872448,0.03018752671778202,-0.0017942267004400492,-0.008096979930996895,0.11889167929701507,-9.826446587359905,0.24955895392056554
1652274611975872768,0.024118132889270782,-0.0022174317855387926,-0.006027591414749622,0.13128211858626454,-9.82127123054862,0.27994081257758663
1652274611978873856,0.017957400530576706,-0.006176285445690155,-0.0019804849289357662,0.14777457723370752,-9.832705647754668,0.28684955078642815
1652274611981871872,0.00799233466386795,-0.004232475534081459,3.318383824080229e-05,0.16527948259301484,-9.837965175718068,0.27228363062161953
1652274611984872704,-1.1802418157458305e-05,-0.004840914625674486,0.003286427818238735,0.16045405346425248,-9.844972424131631,0.24042218266502022
1652274611987870720,-0.009400677867233753,-0.003651754464954138,0.0030714061576873064,0.15726225341930986,-9.847358442485332,0.20947967618424443
1652274611990871552,-0.02007676474750042,-0.003960696514695883,0.0050680795684456825,0.1663223061768338,-9.847648365342616,0.15828080107839776
1652274611993869568,-0.03079674206674099,-0.005003464408218861,0.00393801461905241,0.14227550489339044,-9.852003053420782,0.07552146112336777
1652274611996870400,-0.03600578382611275,-0.0041476283222436905,0.003410828299820423,0.11549688575956969,-9.860830502998828,-0.028531024892255664
1652274611999868672,-0.042247287929058075,-0.006176960654556751,0.005836382042616606,0.08352977633825502,-9.867193608289956,-0.14471158206705004
1652274612002869760,-0.04480239748954773,-0.003015225986018777,0.00547886872664094,0.07256050612565595,-9.87380805799365,-0.2575586474375799
1652274612005873664,-0.045894257724285126,-0.001920899492688477,0.001519600278697908,0.06816477365104946,-9.879763167005777,-0.3576682867120951
1652274612008874496,-0.046294134110212326,-0.0017944686114788055,0.0029609152115881443,0.045645497028715905,-9.861672214519977,-0.46304728122428057
1652274612011872768,-0.04248630255460739,-0.0033388708252459764,0.0017953444039449096,0.019781280192919075,-9.830070623075962,-0.5528605308793485
1652274612014873600,-0.03443704918026924,-0.004232789855450392,0.00042318145278841257,-0.013819666091480757,-9.815893629163503,-0.6141746851503849
1652274612017871616,-0.0273752398788929,-0.0018665038514882326,-0.002762395888566971,-0.02477363598695956,-9.788720375555753,-0.6545622981835156
1652274612020872448,-0.020126866176724434,-0.004528178367763758,-0.008295610547065735,-0.021472550898243205,-9.777406954380869,-0.6704614397134632
1652274612023870720,-0.013475578278303146,-0.0031445594504475594,-0.010477138683199883,-0.04362335725107696,-9.758167416381836,-0.6533924506865442
1652274612026871808,-0.005053568631410599,-0.0030067162588238716,-0.01152574922889471,-0.05411269845962524,-9.749245274257659,-0.6225718535523861
1652274612029869824,0.000513145700097084,-0.0002826073323376477,-0.013499706983566284,-0.0447563661692664,-9.74904127611816,-0.5718803251804784
1652274612032871168,0.007970418781042099,-0.0014009162550792098,-0.016785355284810066,-0.03975136095620692,-9.75717139108181,-0.5318462382927537
1652274612035869440,0.015412358567118645,-0.0003686381387524307,-0.018923437222838402,-0.04152768644634634,-9.747329211503267,-0.4775687046602368
1652274612038870528,0.02405485138297081,-0.002931789495050907,-0.01822899840772152,-0.009109122913505416,-9.739372115018963,-0.41151173977628347
1652274612041868800,0.03141923248767853,-0.001501197461038828,-0.020424043759703636,0.028185334993433207,-9.747140995454787,-0.3275564589018002
1652274612044869888,0.038039762526750565,-0.0029670479707419872,-0.021663106977939606,0.03427486577387899,-9.770931620886921,-0.2373902676232159
1652274612047868160,0.03973197564482689,-0.003245210275053978,-0.019057657569646835,0.0447981457846472,-9.784333538773655,-0.13077118252259678
1652274612050869248,0.04294445365667343,-0.001137216342613101,-0.016261428594589233,0.057819014764809974,-9.784301974591612,-0.033072933505056426
1652274612053867520,0.04173779860138893,-0.003509311471134424,-0.01459576841443777,0.07254029445468914,-9.789163443148135,0.04781486782389693
1652274612056868608,0.03806222230195999,-0.0028217476792633533,-0.014437306672334671,0.09619051133571192,-9.811439572364092,0.11241114903814159
1652274612059866624,0.03644637390971184,-0.002134758047759533,-0.01161679346114397,0.1066588325891178,-9.826188228684662,0.17342499605519696
1652274612062867712,0.028365839272737503,-0.003078056499361992,-0.009604547172784805,0.11208719604709184,-9.83292776607275,0.22489974722666664
1652274612065865984,0.026623912155628204,-0.00477908831089735,-0.005318777170032263,0.1220525270812679,-9.842776959913968,0.2517720816590823
1652274612068867072,0.018598347902297974,-0.0035183082800358534,-0.0037282374687492847,0.11399468276938422,-9.858415258550643,0.2673872916811146
1652274612071865344,0.012649515643715858,-0.0050530326552689075,0.0011505980510264635,0.11684849216477014,-9.874362184745072,0.27716458932990207
1652274612074866432,0.002448968356475234,-0.005276743322610855,0.003374475287273526,0.12085222964710556,-9.871769245642422,0.26236259538689627
1652274612077864704,-0.005203935317695141,-0.006873149424791336,0.003851119661703706,0.11269635918769054,-9.870279883867502,0.22815325086358934
1652274612080865792,-0.014807919040322304,-0.0077132913284003735,0.0022738564293831587,0.10328599515515378,-9.878716872823238,0.1653744674000889
1652274612083869696,-0.02378404513001442,-0.005663500167429447,0.0023619704879820347,0.11088543730820528,-9.887689283829927,0.07801145130819641
1652274612086871040,-0.03137943148612976,-0.0067171212285757065,0.005547434091567993,0.11323348000538534,-9.893938991874457,-0.02113607406904921
1652274612089869568,-0.035908184945583344,-0.008477753959596157,0.004372077062726021,0.10902268477678298,-9.891072496527434,-0.12550980966198258
1652274612092870656,-0.03826366737484932,-0.010555214248597622,0.0035827970132231712,0.0858482276147697,-9.904697701776026,-0.22115608545262366
1652274612095868928,-0.04091053828597069,-0.01125198882073164,0.004421741236001253,0.060377051517437205,-9.899624051773548,-0.3101923593858257
1652274612098870016,-0.04088841378688812,-0.014864698983728886,0.0033179763704538345,0.04159396118216682,-9.878056363087891,-0.40224925978183745
1652274612101868288,-0.03525672107934952,-0.01635243371129036,0.0019679139368236065,-0.017591977429628605,-9.852814369803667,-0.47672597022578117
1652274612104869376,-0.0323464497923851,-0.018653124570846558,-0.00013194920029491186,-0.07301656106377485,-9.809682499563694,-0.4889917967546731
1652274612107867648,-0.026048341765999794,-0.023301225155591965,0.0023668946232646704,-0.06764980529965832,-9.757482356727122,-0.5195066158752888
1652274612110868736,-0.020585697144269943,-0.027383960783481598,-0.0006174433510750532,-0.01383500979108503,-9.73305577147901,-0.5392454451659694
1652274612113866752,-0.011069480329751968,-0.03210768103599548,-0.003220275742933154,-0.025111864098533988,-9.750278708958625,-0.4850101797726005
1652274612116867584,-0.00696898065507412,-0.037707045674324036,-0.0050145043060183525,-0.07563334683289286,-9.76670143597126,-0.4111070314329117
1652274612119865856,-0.0001632082276046276,-0.04205172136425972,-0.008680302649736404,-0.05034007545257918,-9.742208215227723,-0.3602382833305746
1652274612122866944,0.0026222183369100094,-0.05275225266814232,-0.008652285672724247,-0.0041901291831978596,-9.74196973029673,-0.2874367760898545
1652274612125864960,0.009161142632365227,-0.06107603758573532,-0.011746719479560852,-0.032256278793350794,-9.747711488819121,-0.1825419848980382
1652274612128866048,0.011726881377398968,-0.07440201938152313,-0.013791320845484734,-0.06275253934396896,-9.740655725088715,-0.09902461138362996
1652274612131864320,0.01914055086672306,-0.08334889262914658,-0.011669106781482697,-0.04642975644131656,-9.750390937161445,-0.058500142596499057
1652274612134865408,0.02370714396238327,-0.09437917172908783,-0.010835792869329453,-0.014002313198987393,-9.811840554380415,0.021411100751301274
1652274612137863424,0.02475767582654953,-0.10213567316532135,-0.008887926116585732,-0.023976042168750426,-9.831593887120485,0.12120049509550444
1652274612140864512,0.023157518357038498,-0.1116502657532692,-0.006245819386094809,-0.0031192322802424313,-9.810523042041062,0.26528231875849884
1652274612143862784,0.02128993347287178,-0.12201733887195587,-0.005801240913569927,0.06485881374110468,-9.843732068681716,0.3464069975832477
1652274612146863616,0.015583223663270473,-0.12952108681201935,-0.005267313681542873,0.1600142555411905,-9.852778129446506,0.43028555995970963
1652274612149861888,0.010573185048997402,-0.1397981196641922,-0.0031494256108999252,0.17283928685542194,-9.75336615357995,0.5688931625958532
1652274612152862976,-0.003445072565227747,-0.1556762009859085,-0.0010635301005095243,-0.04448449955848045,-9.81153660299778,0.6166065884724259
1652274612155860992,-0.016914501786231995,-0.16052846610546112,0.00531941931694746,-0.1444371855724603,-9.790917008817196,0.4826738823121413
1652274612158867968,-0.02382616326212883,-0.16668540239334106,0.005793953314423561,0.21510016468083484,-9.76418331567049,0.4490242722971365
1652274612161872128,-0.0327148474752903,-0.1761464774608612,0.0023880316875874996,0.29795935741430146,-9.840209739774465,0.4774478912921622
1652274612164873472,-0.04347843676805496,-0.18310107290744781,0.005444840062409639,-0.04591949166450649,-9.739946115514636,0.3113692576780915
1652274612167871744,-0.05036807432770729,-0.18260933458805084,0.008693000301718712,-0.21783607418444006,-9.69292191401124,0.24107797969263045
1652274612170872832,-0.05914955958724022,-0.18996956944465637,0.01018190011382103,-0.06598839315976947,-9.836686241823434,0.25227760176211594
1652274612173871104,-0.055310629308223724,-0.19559423625469208,0.008551436476409435,0.30091373197417703,-9.779733936023712,0.10872046869350596
1652274612176872192,-0.06098375841975212,-0.19535955786705017,0.008965365588665009,0.17933690524641424,-9.805649298524855,0.2935425273527391
1652274612179870208,-0.08646603673696518,-0.20566904544830322,0.009267189539968967,-0.4012644134629518,-9.854461552488804,0.39371640923619267
1652274612182871296,-0.10597819834947586,-0.21087589859962463,0.016360925510525703,-0.16626770817907527,-9.798691734471916,-0.06049666387569159
1652274612185869568,-0.09480799734592438,-0.2099919468164444,0.015323320403695107,0.33237967780716715,-9.923335766750574,-0.2995233370617032
1652274612188870656,-0.09148848801851273,-0.21276108920574188,0.012748743407428265,0.127193945090333,-9.866519070029257,-0.07059756745565682
1652274612191868928,-0.09299656003713608,-0.22482670843601227,0.012308835983276367,-0.005177185154656763,-9.622524435704946,0.03209688013069099
1652274612194870016,-0.09296754747629166,-0.2403276264667511,0.007756148464977741,0.009839469314937014,-9.685115039652585,-0.12301307007595896
1652274612197868288,-0.0895262211561203,-0.24103862047195435,0.00815114751458168,-0.17447160076498985,-9.817201789152621,-0.3741993329374119
1652274612200869120,-0.08904393017292023,-0.24187692999839783,0.01138800848275423,-0.16100143994763494,-9.705666244772075,-0.3781059849871322
1652274612203867392,-0.09081058949232101,-0.24879197776317596,0.012163027189671993,-0.11000895586777477,-9.51279740205109,-0.08778937914464623
1652274612206868480,-0.0882665365934372,-0.2569631338119507,0.010501506738364697,-0.09368177991779521,-9.569002688875793,-0.10165461282734758
1652274612209866496,-0.07845337688922882,-0.25785374641418457,0.004621777683496475,-0.10444514772817493,-9.740283384644984,-0.5265845914375037
1652274612212867328,-0.07142238318920135,-0.2478848695755005,0.0014407725539058447,-0.17661496946923433,-9.7327389606148,-0.6303921719145029
1652274612215865600,-0.06858459860086441,-0.2417234182357788,0.0017732608830556273,-0.2478731197254732,-9.608049920150638,-0.3426411057110876
1652274612218866432,-0.06869643181562424,-0.2398839294910431,0.002045273780822754,-0.06739690825082362,-9.642287120795249,-0.11572959853690117
1652274612221864448,-0.07264392077922821,-0.23810847103595734,-0.0019737952388823032,-0.0006598692728846799,-9.910205067020653,-0.13339703751415946
1652274612224865536,-0.08056432753801346,-0.23082801699638367,-0.0016187607543542981,-0.09343491075094788,-10.007971029245853,-0.27272306321850043
1652274612227863552,-0.08275376260280609,-0.22138692438602448,-0.002824472961947322,0.08265510326242075,-9.90797453148961,-0.2541026434984989
1652274612230864640,-0.07931473851203918,-0.21301625669002533,-0.0012093366822227836,0.15289680648511275,-9.865569806480407,-0.12479198938198387
1652274612233862656,-0.08054005354642868,-0.2111126333475113,0.004759175702929497,0.10528947133151814,-9.940939227980374,0.048074477741308505
1652274612236869888,-0.09219563752412796,-0.21270540356636047,0.004729238338768482,0.18357941992068663,-9.994961910068989,0.12714298208807595
1652274612240873216,-0.09963198006153107,-0.21220161020755768,0.00913386233150959,0.20094452408365904,-9.847238030976056,0.16004656864190472
1652274612244872448,-0.10114017128944397,-0.2113824188709259,0.020093506202101707,0.031215806996822356,-9.688843120265007,0.12258054214389993
1652274612247874560,-0.10860936343669891,-0.20947277545928955,0.02658822387456894,0.10766880421610549,-9.766896666282415,0.1743814382635057
1652274612250873856,-0.1208781972527504,-0.21338099241256714,0.02981211245059967,0.09055218578833155,-9.763534496372937,0.2855216814498417
1652274612253875968,-0.1263703554868698,-0.21870474517345428,0.03257041051983833,0.12008616804489865,-9.650719433575867,0.2777268811214715
1652274612256875264,-0.13130056858062744,-0.22291575372219086,0.03469528257846832,0.10410880104643293,-9.589593641483782,0.09408115449892357
1652274612259877376,-0.1380581110715866,-0.22207120060920715,0.03519674018025398,0.04106009633406065,-9.703632108595967,0.08576053106500767
1652274612262876672,-0.14925915002822876,-0.2223084419965744,0.036847203969955444,0.019399085075454785,-9.769842072084545,0.10319425261793658
1652274612265878784,-0.1548052281141281,-0.22429506480693817,0.03596225753426552,0.06332880486196373,-9.680606622317432,-0.03263746469723992
1652274612268878336,-0.15227046608924866,-0.22696417570114136,0.03419187292456627,0.039896906906738874,-9.740751586678623,-0.20736038247533142
1652274612271880448,-0.15065628290176392,-0.22356200218200684,0.0348307341337204,-0.029914110997819807,-9.858746097940205,-0.35574784004352983
1652274612274879744,-0.15171374380588531,-0.220791295170784,0.03288643807172775,0.0786709746628534,-9.91204163479805,-0.4314026543561369
1652274612277882112,-0.15103505551815033,-0.21452046930789948,0.029015272855758667,0.021440057417727074,-9.79669033152163,-0.4844473217254504
1652274612280881664,-0.14832928776741028,-0.20970676839351654,0.029747726395726204,-0.06223147004535421,-9.783926711538433,-0.49261101016514003
1652274612283883776,-0.14829422533512115,-0.20873866975307465,0.030643217265605927,-0.1117750887574628,-9.889676658254862,-0.6307428850483149
1652274612286883072,-0.13591554760932922,-0.1999640017747879,0.02999153360724449,0.060882777116447684,-9.90569957229495,-0.7257976155534386
1652274612289885440,-0.13075152039527893,-0.19222350418567657,0.028445357456803322,0.11375874598850495,-9.865967281365394,-0.6893287833992391
1652274612292884992,-0.12603053450584412,-0.1901313215494156,0.02847631275653839,0.008525826008169679,-9.771931737840175,-0.6418513582356273
1652274612295887104,-0.11932704597711563,-0.18613208830356598,0.030633602291345596,0.027819974563049618,-9.774666715762018,-0.6146430333144962
1652274612298886144,-0.11096827685832977,-0.1819293051958084,0.02743956446647644,0.0191812616232899,-9.792055072936416,-0.6303402955967933
1652274612301888256,-0.10732439160346985,-0.17610840499401093,0.027783559635281563,0.09669052414656616,-9.73335504668653,-0.46420109090190376
1652274612304887296,-0.10832859575748444,-0.17625091969966888,0.029329707846045494,0.03327214587158523,-9.64689315328598,-0.33337760280333456
1652274612307889408,-0.10256350040435791,-0.17533670365810394,0.030658410862088203,-0.009671770898101385,-9.609138299909233,-0.30472244007475674
1652274612310888960,-0.09647012501955032,-0.17627407610416412,0.029781466349959373,0.08097212774469517,-9.690503746953606,-0.3012045133479871
1652274612313897216,-0.0969405248761177,-0.1738356500864029,0.03212331235408783,0.0970816788886208,-9.733305946847796,-0.21936828872039912
1652274612316902656,-0.09985846281051636,-0.17598877847194672,0.029449932277202606,-0.01236140042443294,-9.67328431660533,-0.14330995337450875
1652274612319905024,-0.1001061275601387,-0.17397525906562805,0.033159639686346054,-0.062027713934448545,-9.610828737214208,-0.1732662435632199
1652274612322904832,-0.09631940722465515,-0.17451205849647522,0.03403915837407112,0.032567904309078584,-9.648725044888257,-0.08074320522649213
1652274612325906944,-0.10188991576433182,-0.17500846087932587,0.03331707790493965,0.049495304324664174,-9.72014835911095,0.027773048415093215
1652274612328906240,-0.10934779793024063,-0.1766781359910965,0.036644451320171356,0.043760756427771406,-9.748252171567081,0.007741660210402915
1652274612331908352,-0.11028768122196198,-0.17564550042152405,0.03483831509947777,0.09021571124242618,-9.763860659587383,0.0029103715921897674
1652274612334907904,-0.11470974236726761,-0.173761785030365,0.0357474610209465,0.11588042345074936,-9.789824537405371,-0.05153850515664089
1652274612337910016,-0.11946718394756317,-0.17018786072731018,0.03911016881465912,0.05660420474810526,-9.860517199265956,-0.19242783922152593
1652274612340909312,-0.12161710113286972,-0.16409502923488617,0.039029426872730255,0.055434576446842396,-9.910980143046379,-0.2998680771124549
1652274612343911424,-0.12000919133424759,-0.16000980138778687,0.04199783131480217,0.07834599875849671,-9.919058235561847,-0.2595908656512387
1652274612346910720,-0.11988957971334457,-0.1624804139137268,0.04033393785357475,0.09029334305590019,-9.922720849722623,-0.18264005671134217
1652274612349912832,-0.12069633603096008,-0.16251631081104279,0.042663801461458206,0.09053985602972098,-9.940766209501028,-0.20910554564222691
1652274612352911872,-0.12042322754859924,-0.1624053418636322,0.04408979415893555,0.06998578766628634,-9.920588513869047,-0.30267467723209407
1652274612355913984,-0.12162838876247406,-0.16419966518878937,0.04347905144095421,0.013022154471662361,-9.85194927740693,-0.32699382005035876
1652274612358913280,-0.11943845450878143,-0.15831562876701355,0.04419541358947754,-0.05634040271276608,-9.775509011805058,-0.34027693386301394
1652274612361915392,-0.12491787225008011,-0.15631800889968872,0.042676497250795364,-0.10555015896116383,-9.72365665949285,-0.35228202709648754
1652274612364914688,-0.12180528789758682,-0.15250979363918304,0.041320282965898514,-0.07609793670391664,-9.684179220107197,-0.3797988334449008
1652274612367917056,-0.12208113819360733,-0.15205445885658264,0.040202267467975616,-0.006786984125850722,-9.725227269810437,-0.42649310887418684
1652274612370916352,-0.1171959638595581,-0.1518244594335556,0.037741657346487045,0.001046752410026238,-9.773576582437753,-0.46480924939550455
1652274612373918464,-0.11361175030469894,-0.1538252979516983,0.037973079830408096,0.0007586500473087653,-9.762378312075137,-0.47594537777472284
1652274612376918016,-0.1039956584572792,-0.15342074632644653,0.03609209135174751,-0.003922746380462194,-9.697256728345154,-0.5274184849783777
1652274612379920128,-0.09985741972923279,-0.15408341586589813,0.03654998913407326,-0.00368144615458732,-9.673007253229617,-0.5824268171034753
1652274612382919424,-0.09336480498313904,-0.15457481145858765,0.03341921418905258,-0.00964027407307294,-9.725011581233144,-0.612716010774672
1652274612385921280,-0.08535594493150711,-0.1497696340084076,0.0318981297314167,-0.0017984745315101462,-9.736423202085495,-0.5531197663374244
1652274612388926464,-0.0816025659441948,-0.1500196009874344,0.032680440694093704,0.011565886682167183,-9.725887779545783,-0.4754738878054544
1652274612391928576,-0.07695413380861282,-0.15081709623336792,0.03316381946206093,0.013692214061709819,-9.781595638242363,-0.4306594713060185
1652274612394927872,-0.07190150767564774,-0.1480959802865982,0.032669540494680405,0.004045793946462799,-9.88451065379381,-0.3804645308120176
1652274612397929984,-0.06924581527709961,-0.14965178072452545,0.03179781138896942,0.012046151329646818,-9.95116719200611,-0.35081904187183827
1652274612400929280,-0.06655684113502502,-0.1468944549560547,0.031806666404008865,0.0280821075143991,-9.918001419985293,-0.32321024639103557
1652274612403931392,-0.06461070477962494,-0.14580538868904114,0.03037402406334877,-0.0009215626911725849,-9.876667539077996,-0.2976584565052762
1652274612406930432,-0.06478529423475266,-0.1423218548297882,0.029635073617100716,-0.04493099208381027,-9.873054024755954,-0.23130736751295625
1652274612409932544,-0.06366109848022461,-0.14447341859340668,0.028643082827329636,0.028387161725445184,-9.85851579631567,-0.1746479254462756
1652274612412931584,-0.06219060346484184,-0.14454416930675507,0.026803428307175636,0.07456472208753694,-9.837649533897638,-0.13331610863190144
1652274612415933440,-0.06420651823282242,-0.14599810540676117,0.026581333950161934,0.0188498445617035,-9.787387081125377,-0.1117772715813946
1652274612418932736,-0.0658990815281868,-0.14922431111335754,0.03012353554368019,-0.007258118472914793,-9.749117848485708,-0.0612183155140141
1652274612421934848,-0.07237602770328522,-0.1491519659757614,0.029516808688640594,-0.029444054933812,-9.742466573902965,-0.07794736396288499
1652274612424933888,-0.07375022768974304,-0.14994938671588898,0.031225966289639473,0.006778493717074161,-9.771544199827312,-0.1315905178151559
1652274612427935744,-0.07483731210231781,-0.14766354858875275,0.03164247050881386,0.019211056256643495,-9.744811675724387,-0.17830149778407067
1652274612430935040,-0.07555294036865234,-0.14676466584205627,0.033378154039382935,0.040335243525076656,-9.726780344471335,-0.2112801314686425
1652274612433937152,-0.07501394301652908,-0.1467789113521576,0.03592265769839287,0.0737888925765641,-9.734786540794373,-0.24380919475480914
1652274612436936192,-0.07427553087472916,-0.14804872870445251,0.03526584059000015,0.08290930635235272,-9.792518598794937,-0.23923680880535392
1652274612439938304,-0.07547277212142944,-0.1511974185705185,0.03590575233101845,0.01991435253765667,-9.800837514328956,-0.22595873649399725
1652274612442937600,-0.07520949095487595,-0.15158262848854065,0.03681483492255211,-0.0066920267182402305,-9.758396548962592,-0.31876247320193796
1652274612445939712,-0.0772337093949318,-0.14745254814624786,0.037063680589199066,-0.014467430509685072,-9.772992060548066,-0.4476973345423117
1652274612448939008,-0.07360579073429108,-0.14451964199543,0.03852309659123421,-0.033632855243026276,-9.827989725148678,-0.5889335321163758
1652274612451941120,-0.06706374138593674,-0.1404043287038803,0.03454560041427612,0.007698461531137581,-9.898919118374586,-0.6285108882125466
1652274612454940416,-0.06216471269726753,-0.13816742599010468,0.03320403769612312,-0.014291162910615093,-9.924083954769372,-0.5914779924347996
1652274612457942528,-0.053016554564237595,-0.13944566249847412,0.033056966960430145,-0.015863153476180742,-9.916453606021404,-0.5259405579129234
1652274612460941568,-0.04705747961997986,-0.14295072853565216,0.02823701687157154,-0.029332975225173866,-9.915300928854942,-0.5158016238775104
1652274612463943680,-0.04004980996251106,-0.14400823414325714,0.023140981793403625,-0.07037913893200456,-9.91664883633256,-0.550107177050598
1652274612466948608,-0.03729395568370819,-0.139389768242836,0.020656095817685127,-0.09028321438753045,-9.885721783149242,-0.5743444502716883
1652274612469950720,-0.03217123821377754,-0.13782639801502228,0.015105572529137135,-0.10399905706164426,-9.823991595423221,-0.5115740327777341
1652274612472950272,-0.029680995270609856,-0.1383347064256668,0.013341354206204414,-0.08315532613582909,-9.79527286593914,-0.3935112785855308
1652274612475952384,-0.024934057146310806,-0.14025704562664032,0.01167322602123022,-0.06986938104527071,-9.786018130859732,-0.3426331781329587
1652274612478951424,-0.017366863787174225,-0.1411224901676178,0.010060233995318413,-0.0053296614570077505,-9.802887432596087,-0.30212601210707796
1652274612481953280,-0.016531584784388542,-0.14348448812961578,0.00898074358701706,-0.0028241303535192852,-9.823540344524384,-0.25406419291794297
1652274612484952320,-0.014905636198818684,-0.14566045999526978,0.008684257976710796,0.036990058999729805,-9.803891056680678,-0.22669357184087857
1652274612487954432,-0.012615119107067585,-0.14521995186805725,0.009817532263696194,0.05639054373111575,-9.780480954998731,-0.16456097732642663
1652274612490953728,-0.015556713566184044,-0.14805766940116882,0.010383282788097858,0.04036022270270623,-9.760388015040755,-0.13623996018934995
1652274612493955584,-0.015323902480304241,-0.1475285291671753,0.01527010090649128,0.04674080885159783,-9.75385013770461,-0.14156510073486714
1652274612496954880,-0.014946368522942066,-0.1506749391555786,0.01710793562233448,0.0646060856556287,-9.77608184325695,-0.16181056437343358
1652274612499956992,-0.014801973477005959,-0.14785534143447876,0.019138332456350327,0.05253197317339945,-9.804171042665839,-0.14985938415112904
1652274612502956032,-0.018541285768151283,-0.14798516035079956,0.022674549371004105,0.05425851383821573,-9.846328514915704,-0.1400327948673628
1652274612505958144,-0.02277391031384468,-0.1481586992740631,0.02328762412071228,0.0505245788737433,-9.863616334325075,-0.1442366306322161
1652274612508957440,-0.023052724078297615,-0.14680013060569763,0.024838516488671303,0.05223249246990308,-9.899929172199965,-0.24327459468776358
1652274612511959552,-0.02152654156088829,-0.1457311511039734,0.026599975302815437,0.02761034355049487,-9.920804786968231,-0.3752036876743659
1652274612514958592,-0.02066083811223507,-0.1399444192647934,0.024955416098237038,-0.0003132455090119038,-9.919483767497539,-0.4120267400937155
1652274612517960704,-0.020248690620064735,-0.13666898012161255,0.024606458842754364,-0.02842249105044175,-9.900062443190812,-0.4237998512022197
1652274612520960000,-0.019133610650897026,-0.13763709366321564,0.02193608507514,-0.040219352927291764,-9.909415962469577,-0.432337743249163
1652274612523961856,-0.01602989248931408,-0.13841965794563293,0.02037319540977478,-0.04459745841366239,-9.911717809671163,-0.4187568885989487
1652274612526961152,-0.013042192906141281,-0.13854795694351196,0.018836570903658867,-0.07260298899393529,-9.887019421744347,-0.42583628893326964
1652274612529963264,-0.008172653615474701,-0.1422647088766098,0.014929170720279217,-0.08511972154397517,-9.843459681481123,-0.49585433946792035
1652274612532962304,-0.007258630357682705,-0.1425183117389679,0.008882463909685612,-0.09058355817412957,-9.824177473384141,-0.5260368944268673
1652274612535964416,-0.0033843473065644503,-0.13883830606937408,0.006371508818119764,-0.1079207331505604,-9.824904618614912,-0.5149663055645302
1652274612538963712,-0.0023922398686408997,-0.13842026889324188,0.006636871490627527,-0.09835847562509588,-9.795956756550073,-0.48962549154832957
1652274612541965824,0.000642983301077038,-0.1422857791185379,0.003957721404731274,-0.04023730870909057,-9.753834940135478,-0.4154973753463477
1652274612544971008,0.005353263579308987,-0.14780807495117188,0.004158442839980125,-0.027736335417185908,-9.732003632077575,-0.38151524544134735
1652274612547973120,0.007750410120934248,-0.15073548257350922,0.003003598190844059,-0.016341540118760895,-9.73844798591137,-0.4011336632227525
1652274612550972672,0.011251460760831833,-0.15062876045703888,0.0034706639125943184,-0.020864746314380317,-9.737182496020198,-0.4565856474621221
1652274612553974784,0.011886938475072384,-0.15071459114551544,0.005958666559308767,-0.01047428063673433,-9.736701434504985,-0.4593957729794085
1652274612556973824,0.013012656942009926,-0.14929112792015076,0.0060589308850467205,-0.026765969714801757,-9.736298698922992,-0.4596475923160091
1652274612559975936,0.013867909088730812,-0.14670713245868683,0.009889376349747181,-0.018121521153999492,-9.748539756336807,-0.4139713348228484
1652274612562974976,0.013911306858062744,-0.14837299287319183,0.010856232605874538,-0.0025900798544607824,-9.769269825154542,-0.3787005898794159
1652274612565977088,0.019871210679411888,-0.14513540267944336,0.01357764471322298,0.01719158336012624,-9.806128606474399,-0.3955083706868812
1652274612568976384,0.02337227389216423,-0.14509430527687073,0.012096934020519257,0.012221160836680792,-9.827995570367575,-0.4161597482452169
1652274612571978496,0.024442030116915703,-0.14194411039352417,0.011352256871759892,-0.013973205835511907,-9.86045407090187,-0.39763866071384396
1652274612574977792,0.02442220225930214,-0.1358657330274582,0.013323290273547173,-0.04559802289148792,-9.85390859478116,-0.37757023414261637
1652274612577979904,0.020867260172963142,-0.13403287529945374,0.01085450779646635,-0.04949471523619722,-9.848513457739353,-0.32026878611166026
1652274612580979200,0.020104117691516876,-0.1356571763753891,0.010686555877327919,-0.0757014481996186,-9.854577287822961,-0.2877088162305765
1652274612583981312,0.019563699141144753,-0.13359501957893372,0.012715689837932587,-0.09618707726961001,-9.875616568720341,-0.30546759588625283
1652274612586980608,0.020126812160015106,-0.1351887285709381,0.010596075095236301,-0.07270377335413358,-9.867419233739376,-0.3226980956178158
1652274612589982464,0.023367177695035934,-0.13578572869300842,0.007030169013887644,-0.038047991104424,-9.8290313431561,-0.3344092474060133
1652274612592981760,0.025303609669208527,-0.13866490125656128,0.0062638986855745316,-0.0065859165873087475,-9.799976513585447,-0.32233295209985224
1652274612595983616,0.026561638340353966,-0.14070604741573334,0.005370207130908966,-0.06409025878771207,-9.801566413125395,-0.3081553006002679
1652274612598982656,0.02359306626021862,-0.1406889259815216,0.005330175161361694,-0.07450958066708407,-9.788621006834507,-0.2981623509068042
1652274612601984512,0.02330724708735943,-0.14345106482505798,0.0040069581009447575,-0.06775982784566004,-9.74581120815575,-0.33050960961896925
1652274612604983552,0.022126497700810432,-0.14320126175880432,0.008187355473637581,-0.03949256845612544,-9.723110131525992,-0.3730183064593002
1652274612607985408,0.0228855162858963,-0.14470019936561584,0.0059799812734127045,-0.03845951734764967,-9.742316936299204,-0.37743842445649206
1652274612610984448,0.02538997493684292,-0.14433546364307404,0.004719948396086693,-0.00556511075576418,-9.754666714784502,-0.3947070642413571
1652274612613986560,0.024975067004561424,-0.1476699411869049,0.006804795935750008,-0.004897424644249258,-9.737689276498555,-0.4220540304481983
1652274612616985600,0.029352592304348946,-0.14536398649215698,0.010770085267722607,-0.027964554682490414,-9.73809084303677,-0.4722157262597233
1652274612619993600,0.02744993008673191,-0.14433066546916962,0.008263661526143551,-0.037737224105221685,-9.763142866706847,-0.5043061606666073
1652274612622998528,0.029890405014157295,-0.1408122330904007,0.007521064952015877,-0.01642900148979388,-9.800820563194154,-0.525852039379254
1652274612626000896,0.029985541477799416,-0.13956063985824585,0.008157880045473576,-0.015334903234819649,-9.821740017104148,-0.4965561675943434
1652274612629000192,0.03147860988974571,-0.13634832203388214,0.00782208051532507,-0.03649730248014675,-9.812536135429143,-0.483315614281781
1652274612632002048,0.03496885672211647,-0.13767963647842407,0.009456552565097809,-0.06438144202032126,-9.81655413889885,-0.4841397901462391
1652274612635001088,0.040242113173007965,-0.13664396107196808,0.006086463574320078,-0.08276657341341488,-9.849411283361912,-0.5050863147262483
1652274612638002944,0.043129321187734604,-0.13541649281978607,0.0052904486656188965,-0.10332166925673372,-9.888290172332525,-0.5126186829924583
1652274612641001984,0.04541916400194168,-0.1317041963338852,0.002928548026829958,-0.09518346231817268,-9.868784676873684,-0.45656288764104247
1652274612644003840,0.04383545741438866,-0.1304115504026413,-0.002169706393033266,-0.05772337693718727,-9.828273802787065,-0.3496381615241989
1652274612647003136,0.04356812685728073,-0.13201439380645752,-0.0031548698898404837,-0.04198512049079872,-9.819227742022276,-0.2919164970534853
1652274612650005248,0.045196302235126495,-0.13380511105060577,-0.004280583001673222,-0.059488610211154445,-9.84342577921152,-0.29720459352424367
1652274612653004288,0.048340413719415665,-0.13518303632736206,-0.004772283136844635,-0.1054654489529319,-9.811633633631468,-0.34373986073322593
1652274612656006144,0.049859680235385895,-0.1337806135416031,-0.002554764272645116,-0.09747269663335754,-9.749656193146109,-0.3426645961845293
1652274612659005184,0.05051808804273605,-0.13515573740005493,-0.005323171615600586,-0.038120937609625975,-9.736808402010798,-0.31492855759486554
1652274612662007040,0.052711017429828644,-0.13594014942646027,-0.002289434429258108,-0.007419569241232238,-9.771936998537182,-0.2566876184904016
1652274612665006080,0.04743599146604538,-0.13713997602462769,-0.00500456290319562,0.03577211402773391,-9.790195708805323,-0.2297266376601532
1652274612668008192,0.04965433105826378,-0.1419464349746704,-0.0018845143495127559,0.04983724506355356,-9.751254860514402,-0.2696227408492938
1652274612671007488,0.05213809758424759,-0.1406104415655136,-0.0023429894354194403,0.01075972596501233,-9.727453713688254,-0.29453628763044254
1652274612674009344,0.05239981412887573,-0.14032959938049316,0.000569388153962791,-0.02163103852873901,-9.770545836439728,-0.30191277121519666
1652274612677008384,0.04900048300623894,-0.13811810314655304,0.0003042349708266556,-0.042422269799048076,-9.815829331755637,-0.30720943458490074
1652274612680010496,0.04844237118959427,-0.140994131565094,0.0036540492437779903,-0.019179368777014313,-9.809537538135052,-0.3104287984902039
1652274612683009536,0.047027070075273514,-0.1395004540681839,0.003325102385133505,-0.04335936798606999,-9.793194890621304,-0.3231425879823044
1652274612686011392,0.05154602974653244,-0.13837149739265442,0.003207211382687092,-0.02045531156354118,-9.80614614213109,-0.39235798036456104
1652274612689010688,0.05167294666171074,-0.13682854175567627,0.002841702662408352,-0.03787530826850561,-9.870835179662704,-0.4207512042213231
1652274612692012800,0.052064623683691025,-0.13177697360515594,-0.0028864878695458174,-0.06163765517093706,-9.898289003777503,-0.4409070898802951
1652274612695011840,0.05305546894669533,-0.13209088146686554,-0.0026509638410061598,-0.0773670707237441,-9.870864405757189,-0.4228149318180978
1652274612698019840,0.05452625826001167,-0.13205650448799133,-0.005293708294630051,-0.08339275162089616,-9.838961201018094,-0.40749494188297536
1652274612701025280,0.05398518964648247,-0.13185763359069824,-0.0044960686936974525,-0.0845420312538743,-9.856918882513046,-0.3930927609125152
1652274612704027648,0.05731065571308136,-0.13110722601413727,-0.008217432536184788,-0.10475579371307976,-9.852530292165278,-0.4298232031449675
1652274612707027200,0.06108732149004936,-0.13278566300868988,-0.010260048322379589,-0.09245013749729841,-9.81218892942667,-0.43809875446129587
1652274612710029056,0.05994667857885361,-0.12918128073215485,-0.010652999393641949,-0.06476926772755105,-9.764106743302941,-0.4429644973341375
1652274612713028096,0.062273554503917694,-0.12646043300628662,-0.013353478163480759,-0.042553179869451556,-9.755628837814927,-0.4055827150534838
1652274612716029952,0.06292945146560669,-0.12922881543636322,-0.015746666118502617,-0.00578986284728162,-9.768088506415486,-0.324117716624774
1652274612719028992,0.06377250701189041,-0.13129465281963348,-0.01272793859243393,0.01795260460267891,-9.783851308214665,-0.2888232802785001
1652274612722031104,0.06604131311178207,-0.13234971463680267,-0.012908720411360264,0.025596606275020167,-9.758663090944289,-0.3594874649632722
1652274612725030144,0.06989015638828278,-0.13401365280151367,-0.012073749676346779,0.014666606343595776,-9.753037067756056,-0.39070663296096025
1652274612728032000,0.07111744582653046,-0.13027943670749664,-0.01163332350552082,0.008879856760363326,-9.768332252043486,-0.3719544400874525
1652274612731031040,0.0721404030919075,-0.12707026302814484,-0.008141978643834591,0.04989509446432348,-9.787060333389043,-0.33802612272892146
1652274612734033152,0.07237493246793747,-0.13118281960487366,-0.00672480883076787,0.03809127084043575,-9.783633281549811,-0.28967527573164553
1652274612737032192,0.07535627484321594,-0.13030695915222168,-0.0046006194315850735,0.02920629608860472,-9.768055773189664,-0.281441956121847
1652274612740034304,0.07466018199920654,-0.13127058744430542,-0.0032167478930205107,0.02556445528779877,-9.777247379904985,-0.2886331828001886
1652274612743033600,0.0750996544957161,-0.12980863451957703,-0.0036423515994101763,-0.031569292043033055,-9.809787713503837,-0.29986060619205235
1652274612746035712,0.07298386096954346,-0.1287141889333725,-0.0041896747425198555,-0.02847928100528661,-9.810168821775912,-0.28270413981107995
1652274612749035008,0.07079415768384933,-0.1271003782749176,-0.005281600169837475,-0.030630011032079345,-9.81906992111206,-0.2228299369489774
1652274612752036864,0.07005929201841354,-0.12801356613636017,-0.0032216431573033333,-0.03889890884533524,-9.827221663385629,-0.20096090896287933
1652274612755036160,0.06854959577322006,-0.12862052023410797,-0.005351612344384193,0.029684058251744135,-9.857473009264469,-0.1909073151233606
1652274612758038272,0.06746668368577957,-0.12986639142036438,-0.009793302044272423,0.01565619961954653,-9.85800843131542,-0.2185527345538139
1652274612761037312,0.06556953489780426,-0.1256430447101593,-0.010965174064040184,-0.07327379636100959,-9.80608710542023,-0.2550357413638383
1652274612764045824,0.06279626488685608,-0.12528914213180542,-0.008674442768096924,-0.09636659855498,-9.798415840139985,-0.24910910952752455
1652274612767051520,0.05903089419007301,-0.1257316619157791,-0.009280531667172909,-0.07274541140561923,-9.821526082092523,-0.2018014331739396
1652274612770054400,0.057394638657569885,-0.12701162695884705,-0.010063258931040764,0.002792619543347973,-9.827753578305243,-0.20716774598006157
1652274612773059328,0.056196462363004684,-0.126238152384758,-0.010874006897211075,0.024518441949761473,-9.797930102449655,-0.28655018424736334
1652274612776061440,0.056830018758773804,-0.125165194272995,-0.008797897957265377,0.03153645606922218,-9.76856781436503,-0.3586842222889885
1652274612779060736,0.05674738064408302,-0.12350871413946152,-0.00892813503742218,-0.0069481957196840085,-9.78063059260249,-0.4177927562745288
1652274612782062592,0.058569036424160004,-0.12356555461883545,-0.005657638888806105,-0.012895046076830476,-9.807965174251795,-0.4059188516726717
1652274612785061632,0.060614462941884995,-0.12374279648065567,-0.004563099704682827,0.019043154627119654,-9.799013806033134,-0.34570732488129285
1652274612788063488,0.06383118033409119,-0.1261674165725708,-0.0034619206562638283,0.013624233709281543,-9.774211373209953,-0.3717774395527318
1652274612791062528,0.06730792671442032,-0.12703220546245575,-0.002129708416759968,-0.004121701591608871,-9.764424723210931,-0.40572471734005955
1652274612794064384,0.06855424493551254,-0.12486088275909424,-0.004614684730768204,-0.0510533930873964,-9.79027286569476,-0.43174752227105195
1652274612797063168,0.07065371423959732,-0.1222691684961319,-0.0022162171080708504,-0.05198628545675892,-9.78322236266136,-0.42011297938302156
1652274612800065024,0.07232121378183365,-0.1253388226032257,-0.0060759480111300945,-0.04687177828750573,-9.761461781752109,-0.373971296335198
1652274612803064064,0.07472044229507446,-0.12254703789949417,-0.008549257181584835,-0.06502095463341101,-9.76242858095765,-0.317166180453822
1652274612806060288,0.07291579991579056,-0.12547150254249573,-0.009214338846504688,-0.08423333063088356,-9.79249463339746,-0.3103552217973396
1652274612809059328,0.07515649497509003,-0.12511278688907623,-0.010642407462000847,-0.07704711805437692,-9.825946236622332,-0.32515937116481364
1652274612812055552,0.07276192307472229,-0.12509505450725555,-0.011489130556583405,-0.09282343692225403,-9.832801509344577,-0.3154978088501841
1652274612815054592,0.07579037547111511,-0.12408646196126938,-0.014787533320486546,-0.0719588550046552,-9.825067115700245,-0.30346495082695035
1652274612818050560,0.07893506437540054,-0.12309017777442932,-0.015434539876878262,-0.05989995835786685,-9.8508854475677,-0.2961391379835084
1652274612821049600,0.07806465774774551,-0.12139087915420532,-0.01574559509754181,-0.03202082150308415,-9.840347686940431,-0.2660958270984702
1652274612824045824,0.07851181924343109,-0.12118541449308395,-0.015727855265140533,-0.007700838434603065,-9.8280961081326,-0.24922847985718397
1652274612827044608,0.07688368856906891,-0.11946825683116913,-0.014559733681380749,-0.0020204381567862583,-9.810503168296814,-0.21701230017878115
1652274612830040832,0.07587575912475586,-0.12054813653230667,-0.01353453192859888,-0.02225372787119122,-9.799874222254752,-0.18294791708411648
1652274612833039872,0.07537979632616043,-0.12250671535730362,-0.011203332804143429,-0.004548735645809211,-9.77977660612166,-0.18647041038814932
1652274612836035840,0.07362306863069534,-0.12042895704507828,-0.009497115388512611,0.003564862007880583,-9.779929166334867,-0.20898133474066852
1652274612839034880,0.07139651477336884,-0.12038838118314743,-0.007008176762610674,-0.02558949383093277,-9.757948220673203,-0.23173613258535042
1652274612842031104,0.06803354620933533,-0.11985626816749573,-0.003347933292388916,-0.023800190128211395,-9.751908355987071,-0.2501089524861425
1652274612845029888,0.06870150566101074,-0.11675857752561569,-0.004483901429921389,0.007393460406552185,-9.739542795410753,-0.25280580862099306
1652274612848025856,0.06926438212394714,-0.11827020347118378,-0.004107720218598843,-0.00494718720750825,-9.755072957497834,-0.2618552851855755
1652274612851031040,0.06908175349235535,-0.11725698411464691,-0.0019472134299576283,-0.04131116218541283,-9.753726219063998,-0.292849010396935
1652274612854033408,0.06817709654569626,-0.11600165069103241,-0.0030019269324839115,-0.07846503116143867,-9.747889767995476,-0.3123899424953386
1652274612857032960,0.06791479140520096,-0.11836723238229752,-0.0030275792814791203,-0.09398892790451645,-9.752841837444901,-0.29158923786049706
1652274612860029440,0.06694236397743225,-0.11575830727815628,-0.003619142808020115,-0.08149136584582738,-9.797218739309907,-0.26892575329476964
1652274612863028480,0.0651027262210846,-0.11767799407243729,-0.006999267265200615,-0.08540450243526138,-9.85127824627757,-0.29374681775318456
1652274612866024704,0.065095454454422,-0.1173606887459755,-0.009865614585578442,-0.10455680967541411,-9.857979205220937,-0.3533020177939907
1652274612869023488,0.07064098864793777,-0.11670035123825073,-0.010462993755936623,-0.09309730369388125,-9.846385798060894,-0.38109563178978856
1652274612872019712,0.07255883514881134,-0.11349915713071823,-0.013193313032388687,-0.10137314727115444,-9.868523980110883,-0.35635873848348854
1652274612875018752,0.07430140674114227,-0.11664458364248276,-0.011823547072708607,-0.09497308010365814,-9.863734407746792,-0.3252877102522179
1652274612878014976,0.07248764485120773,-0.11350015550851822,-0.013374018482863903,-0.07538517619152553,-9.86673885025978,-0.3108061439026147
1652274612881014272,0.07134853303432465,-0.11426467448472977,-0.014273615553975105,-0.05076016402817331,-9.856955122870206,-0.3146068513598293
1652274612884010496,0.07382190227508545,-0.1116907000541687,-0.01368870958685875,-0.04409906673773657,-9.837455472630262,-0.32594599149785936
1652274612887009792,0.07852163165807724,-0.11245213449001312,-0.01239930558949709,-0.05775852588238194,-9.805502583530545,-0.3411588677966967
1652274612890006016,0.07631590217351913,-0.11038853228092194,-0.010797391645610332,-0.056111530426912935,-9.773680627334118,-0.32432036305740475
1652274612893005312,0.07654517143964767,-0.11086048930883408,-0.010567293502390385,-0.02115683829586487,-9.741154322260618,-0.2630126202608459
1652274612896001792,0.07690013200044632,-0.10855793952941895,-0.010132525116205215,0.017618879136285976,-9.754636319646238,-0.22466445889975875
1652274612899001088,0.07790732383728027,-0.11268623173236847,-0.008649221621453762,0.02160902990961913,-9.763832602536677,-0.22119950446924194
1652274612901997568,0.07768619060516357,-0.10967209190130234,-0.009325594641268253,-0.023396899707079862,-9.755701903051138,-0.2350145880004391
1652274612904996608,0.07950084656476974,-0.10863851010799408,-0.007193020544946194,-0.09073248339183627,-9.726856332316995,-0.24672029642853885
1652274612907992832,0.07741241157054901,-0.1067289337515831,-0.005334081593900919,-0.0751502257913351,-9.722711487597227,-0.22732827128153293
1652274612910991872,0.07500045746564865,-0.10869042575359344,-0.004092257935553789,-0.05849980923635885,-9.770101015281677,-0.1861837572001852
1652274612913988096,0.07453954219818115,-0.10722705721855164,-0.007560391910374165,-0.03366637392013799,-9.815305600142478,-0.19999038343029096
1652274612916987136,0.0737081840634346,-0.10796096175909042,-0.007035534828901291,-0.03231984326556558,-9.821707283878325,-0.23743195134047418
1652274612919983104,0.07515741884708405,-0.10685354471206665,-0.008316164836287498,-0.06555083285956644,-9.818599965512751,-0.268288533103466
1652274612922982144,0.07511056214570999,-0.1029784232378006,-0.006760986987501383,-0.08100842290078289,-9.815851543587446,-0.29209041058197616
1652274612925978368,0.07432707399129868,-0.10160302370786667,-0.009042161516845226,-0.06752774068941361,-9.848934313499926,-0.25727922770800066
1652274612928983296,0.07295464724302292,-0.10188817977905273,-0.011216875165700912,-0.05921527772906702,-9.873369666576385,-0.22064621796803546
1652274612931985408,0.07096279412508011,-0.10329512506723404,-0.007262849248945713,-0.02359103403969202,-9.838534500038623,-0.2671353810129687
1652274612934984704,0.07309955358505249,-0.10065080970525742,-0.012022984214127064,-0.034249701649870255,-9.809361012524366,-0.33477808071840554
1652274612937981184,0.07607440650463104,-0.10008848458528519,-0.008338117972016335,-0.06892363376091235,-9.8036063945204,-0.3573569192079827
1652274612940980224,0.07749480754137039,-0.09585399925708771,-0.010679005645215511,-0.09287834544726647,-9.774771345180273,-0.34359285347796975
1652274612943976704,0.07227727770805359,-0.09491755068302155,-0.008910045027732849,-0.0530540836516302,-9.755234870061278,-0.2891385385064408
1652274612946976000,0.07446350157260895,-0.0934184268116951,-0.010964001528918743,-0.014579739769251318,-9.75558324510753,-0.26076937137870115
1652274612949972224,0.0746106505393982,-0.09139616042375565,-0.012572398409247398,0.01832048121713451,-9.745983642113208,-0.2955992224205285
1652274612952971264,0.07426505535840988,-0.09137434512376785,-0.010661782696843147,-0.025036963098263365,-9.736592128911614,-0.3512873169707134
1652274612955967744,0.07464616745710373,-0.0883835107088089,-0.00936434417963028,-0.06974708353958557,-9.707433254444599,-0.35648324164599177
1652274612958966784,0.07218455523252487,-0.0834735855460167,-0.006755531299859285,-0.09760893589942715,-9.709843238195777,-0.3617389702171087
1652274612961963008,0.07144194096326828,-0.07672647386789322,-0.008077778853476048,-0.06820602354346775,-9.739040106585621,-0.3720896473070606
1652274612964962304,0.07535897940397263,-0.07387136667966843,-0.007477841340005398,0.002200471469631884,-9.803189045891164,-0.35259386952463534
1652274612967958528,0.07436707615852356,-0.07213706523180008,-0.009934361092746258,0.003228554142045323,-9.807213479101657,-0.3341453357728198
1652274612970957824,0.07579324394464493,-0.06710648536682129,-0.009304986335337162,-0.024780006362241692,-9.794690682137013,-0.346619544355385
1652274612973954048,0.07382195442914963,-0.06467348337173462,-0.009462420828640461,-0.09923919484922662,-9.802090729260444,-0.36647531455662097
1652274612976953344,0.07604740560054779,-0.06083909422159195,-0.00962830614298582,-0.11066535568358377,-9.858037657409906,-0.3112984939968213
1652274612979949824,0.07299936562776566,-0.05699318274855614,-0.010125037282705307,-0.0350727975188056,-9.900507848870754,-0.2624126816063188
1652274612982948864,0.0718267560005188,-0.054166797548532486,-0.009266053326427937,0.006322809813357889,-9.874586641150712,-0.2434865934706293
1652274612985945344,0.07009592652320862,-0.054412126541137695,-0.009824912995100021,-0.05002087626846041,-9.83796283763051,-0.21005055314106866
1652274612988944640,0.07083926349878311,-0.053820934146642685,-0.00945884920656681,-0.09791345353764482,-9.821882640445232,-0.2225656051906757
1652274612991941120,0.06989498436450958,-0.05069081485271454,-0.011387079022824764,-0.07654281722747254,-9.820772048854828,-0.27328193921027705
1652274612994940416,0.07211081683635712,-0.04691271856427193,-0.010502195917069912,-0.02956250053157564,-9.813291337710618,-0.2651070352568291
1652274612997936896,0.0718446671962738,-0.048840027302503586,-0.011406256817281246,0.0010801848929921107,-9.798775321102141,-0.2079752995032817
1652274613000935936,0.07210090756416321,-0.049565017223358154,-0.009552298113703728,-0.0316404438833706,-9.769912214711308,-0.18996586955478414
1652274613003938048,0.06780313700437546,-0.04841038957238197,-0.011748749762773514,-0.04468255201438442,-9.751722478026151,-0.19520957889454438
1652274613006937344,0.06429149210453033,-0.04546428844332695,-0.0098577244207263,-0.03204184374151518,-9.754554486581682,-0.2326563161701895
1652274613009933824,0.06463190913200378,-0.044206518679857254,-0.009559879079461098,-0.0316992887979839,-9.752670572531223,-0.26967047071484845
1652274613012932864,0.06178975850343704,-0.042497240006923676,-0.009026141837239265,-0.02061024868021486,-9.756780930459499,-0.2656940596308559
1652274613015929088,0.06386508792638779,-0.04110659658908844,-0.010750844143331051,-0.027967577756638638,-9.732499891161918,-0.26509368258491156
1652274613018928128,0.06555796414613724,-0.03592412546277046,-0.00937754474580288,-0.005884187213119002,-9.758863581952452,-0.2709364720626734
1652274613021924352,0.0604315884411335,-0.03626861050724983,-0.010855094529688358,-0.04104072034673299,-9.819323603612183,-0.3031927462894469
1652274613024923392,0.06390161067247391,-0.02945074625313282,-0.008368989452719688,-0.03228588391374797,-9.858938990163802,-0.32658728507608176
1652274613027919872,0.06172577291727066,-0.029924726113677025,-0.006247061304748058,-0.02693049664372811,-9.878741422742605,-0.3193821029376238
1652274613030918912,0.062254615128040314,-0.025367021560668945,-0.009262572973966599,-0.06757948914295993,-9.836443080717325,-0.33973489940818397
1652274613033915136,0.061586569994688034,-0.0209073256701231,-0.008752105757594109,-0.06698567426854278,-9.845752176332473,-0.34626364358980205
1652274613036914432,0.06306142359972,-0.018768370151519775,-0.00892465841025114,-0.06371748451914172,-9.894958398050068,-0.3521710044700652
1652274613039910656,0.062171172350645065,-0.01723450981080532,-0.00869077630341053,-0.040693331681168635,-9.910774391341208,-0.32462829649541525
1652274613042909952,0.06360357999801636,-0.01578855887055397,-0.013648093678057194,-0.03006940887409728,-9.891501535594463,-0.29121233083950354
1652274613045906176,0.06239188835024834,-0.01417401060461998,-0.010844140313565731,-0.12215960418493486,-9.85478420857191,-0.27538254648502913
1652274613048905472,0.06125425547361374,-0.015047591179609299,-0.012748291715979576,-0.12443063612314871,-9.839336464071273,-0.27615630733650176
1652274613051901952,0.059153396636247635,-0.008865154348313808,-0.01530070137232542,-0.06501787676033563,-9.871901347589493,-0.26727475295104086
1652274613054900992,0.05535735562443733,-0.011217322200536728,-0.015419922769069672,-0.05570613709695171,-9.870367562150955,-0.20754569418067112
1652274613057897472,0.05389676243066788,-0.010848455131053925,-0.01505046896636486,-0.03794707431348506,-9.82449662233591,-0.19342011992819605
1652274613060896768,0.052044644951820374,-0.008596999570727348,-0.01571134850382805,-0.041594472638820296,-9.794550396883487,-0.18506834330419078
1652274613063893248,0.047002531588077545,-0.005337833892554045,-0.01754322275519371,-0.04360823731375858,-9.802717336726188,-0.19969859740948304
1652274613066892544,0.04589298740029335,-0.007374251261353493,-0.015079603530466557,-0.021449982873408588,-9.837911399704216,-0.19802920289253814
1652274613069889024,0.04437362775206566,-0.007847881875932217,-0.015808312222361565,-0.0059544645539106565,-9.839619372665881,-0.15305141252493484
1652274613072888320,0.03881166875362396,-0.00619128393009305,-0.013488799333572388,-0.01863125278291409,-9.81716671783924,-0.10686211834256537
1652274613075884544,0.03168048709630966,-0.0060509005561470985,-0.01155293919146061,0.011726925887708784,-9.790642283529042,-0.118679899709858
1652274613078883840,0.025057369843125343,-0.008684598840773106,-0.011689468286931515,0.009568221475370228,-9.827395850908756,-0.17741678737141192
1652274613081886208,0.021349940448999405,-0.00585296330973506,-0.009933923371136189,0.0007196674605016596,-9.875741656404733,-0.2550344079232775
1652274613084885760,0.01938537321984768,-0.0027655367739498615,-0.008476497605443,0.006933034683170262,-9.875697232741118,-0.2996606631731614
1652274613087882496,0.019486036151647568,0.0001878714538179338,-0.009451985359191895,-0.007544652929870062,-9.84661609968543,-0.3116824883457273
1652274613090881792,0.023024210706353188,0.00031794063397683203,-0.006900507025420666,-0.05807720447669271,-9.852670577418804,-0.33039774674233047
1652274613093878272,0.018755674362182617,0.001423839246854186,-0.00682608550414443,-0.11493996426286175,-9.87078607982397,-0.3957787485934794
1652274613096877312,0.02256464585661888,0.0038805322255939245,-0.004758269991725683,-0.09967494678483343,-9.87544705737233,-0.47283860739842054
1652274613099873792,0.022023754194378853,0.007381074130535126,-0.005792406853288412,-0.07424061839943752,-9.878625687408446,-0.485060960111767
1652274613102873088,0.023546654731035233,0.008402541279792786,-0.006915637291967869,-0.08623881610124372,-9.847553672796487,-0.5096597235890105
1652274613105869312,0.02776717022061348,0.00968870334327221,-0.008379788137972355,-0.08530478665414266,-9.85400094923973,-0.4981143568217754
1652274613108868352,0.031894803047180176,0.009953858330845833,-0.010594773106276989,-0.14372770386254413,-9.882395853596925,-0.4941898037891835
1652274613111864576,0.03630739077925682,0.01111120730638504,-0.011753054335713387,-0.13451823269696905,-9.886022227400542,-0.46076472324505446
1652274613114863872,0.037162572145462036,0.014105187729001045,-0.013645119033753872,-0.09462444019592367,-9.865281052666901,-0.4257593512395397
1652274613117860352,0.036755457520484924,0.01361527293920517,-0.015467310324311256,-0.12530717236250638,-9.831618437039852,-0.35783418133091177
1652274613120859648,0.03609735146164894,0.015894725918769836,-0.016494911164045334,-0.097429533345066,-9.82942180377841,-0.28768899728525427
1652274613123856128,0.03174276277422905,0.013261727057397366,-0.01883595995604992,-0.09692756603914313,-9.834244109368324,-0.2871636765032075
1652274613126855168,0.030441071838140488,0.017850907519459724,-0.021550510078668594,-0.07029727390140761,-9.841633635097741,-0.27187278479840604
1652274613129851392,0.02904551848769188,0.015507988631725311,-0.01933390647172928,-0.03571646115062758,-9.827643688189983,-0.21685871705226598
1652274613132850688,0.02487466298043728,0.012743760831654072,-0.020484421402215958,-0.012207899496308527,-9.80225030373633,-0.13962380307451822
1652274613135847168,0.021938389167189598,0.012403418309986591,-0.020001810044050217,0.008029185043802135,-9.813583598655462,-0.12808493911330587
1652274613138846208,0.015497306361794472,0.014096985571086407,-0.017906097695231438,-0.025903729145566465,-9.840507845938205,-0.15975642658891157
1652274613141842688,0.012542418204247952,0.01740252785384655,-0.016680952161550522,-0.017519513839972203,-9.83025767008066,-0.19408806405132636
1652274613144841728,0.007651412859559059,0.01709447056055069,-0.01220098789781332,0.007532783824740909,-9.81170494530201,-0.21047111664069815
1652274613147837952,0.005362923257052898,0.01974998041987419,-0.01060397271066904,0.01962521969823865,-9.82222400122881,-0.14940268075903876
1652274613150837248,0.0011912740301340818,0.021315716207027435,-0.010045178234577179,0.04158795613306574,-9.826874457383155,-0.0769697237029206
1652274613153833728,-0.005987492389976978,0.02007441781461239,-0.01142425462603569,0.01412945127657149,-9.86032079991102,-0.06115067080501466
1652274613156839168,-0.00925536174327135,0.01804877258837223,-0.011551054194569588,-0.05650563061130233,-9.87399393595457,-0.13435600047311744
1652274613159841536,-0.011887994594871998,0.022562667727470398,-0.008883871138095856,-0.06866520658701192,-9.868946004915237,-0.18454283985905348
1652274613162841344,-0.016802508383989334,0.022537367418408394,-0.006147387437522411,-0.09073711390118114,-9.89892847072482,-0.1767374633377418
1652274613165838336,-0.021688709035515785,0.02897387370467186,-0.007555536925792694,-0.1003671029006131,-9.87623499287963,-0.20614035742739215
1652274613168843520,-0.025153573602437973,0.028238125145435333,-0.00986755546182394,-0.07939886881229467,-9.866624283969402,-0.1763274760310538
1652274613171845888,-0.026066593825817108,0.027924001216888428,-0.010912534780800343,-0.12030182922272942,-9.875074132406711,-0.1676540479709394
1652274613174845440,-0.02238183468580246,0.02640061266720295,-0.01208770927041769,-0.0938299014179036,-9.883501769012213,-0.2665487036988139
1652274613177842176,-0.02102087438106537,0.024429114535450935,-0.013719214126467705,-0.09454679924929514,-9.895558117508887,-0.2766498082081787
1652274613180841216,-0.021316951140761375,0.024487625807523727,-0.015901882201433182,-0.155897851464618,-9.85053239634633,-0.24911815135050563
1652274613183837696,-0.019085628911852837,0.02432105876505375,-0.01396272610872984,-0.0969378865037579,-9.822844763475656,-0.2864484774385579
1652274613186836736,-0.01801302656531334,0.023785509169101715,-0.015788812190294266,-0.06702388282050378,-9.86627357083559,-0.3085913904625922
1652274613189833472,-0.01551445946097374,0.022901082411408424,-0.01611156016588211,-0.08478304606867022,-9.871429053902625,-0.2865426585280336
1652274613192832512,-0.011181145906448364,0.022083358839154243,-0.01649942621588707,-0.07102303545926697,-9.799270411142706,-0.3195757988788187
1652274613195829248,-0.003960093483328819,0.022331055253744125,-0.015240824781358242,-0.06333331207372248,-9.761320911976695,-0.3195405083697289
1652274613198828288,-0.002043724525719881,0.020423926413059235,-0.014473588205873966,-0.09058747629742138,-9.810445885151625,-0.290675648413226
1652274613201824768,0.0012409944320097566,0.01891729235649109,-0.013832255266606808,-0.07999403082700446,-9.85968951627016,-0.3047406515848823
1652274613204824064,0.0023412886075675488,0.018609320744872093,-0.012212317436933517,-0.04739801238500513,-9.83634020486474,-0.3321542350208387
1652274613207820288,0.00577879510819912,0.018990077078342438,-0.011250298470258713,-0.05756820464178454,-9.802296480965614,-0.36573567517045885
1652274613210819328,0.010553264990448952,0.021331341937184334,-0.008556653745472431,-0.05122201851941645,-9.816219792377948,-0.3886730082415044
1652274613213815808,0.017740512266755104,0.022924788296222687,-0.007815895602107048,-0.0489463104060851,-9.861545957791805,-0.4032050626693293
1652274613216815104,0.021981442347168922,0.022143136709928513,-0.010989426635205746,-0.024417242031032217,-9.879400763434171,-0.35821459548324347
1652274613219811328,0.02769593335688114,0.021632643416523933,-0.01181876752525568,-0.04469311907417141,-9.868723886597156,-0.2879754130112007
1652274613222810624,0.027125027030706406,0.019772225990891457,-0.01184072345495224,-0.0945462695263326,-9.855580327385663,-0.2398845503906719
1652274613225807104,0.0232239980250597,0.019813528284430504,-0.011829282157123089,-0.10680132806603797,-9.89260745100975,-0.23118434392148626
1652274613228806400,0.027208823710680008,0.022416088730096817,-0.015165537595748901,-0.0838001268453896,-9.893032982945442,-0.23903186081778258
1652274613231802624,0.023501049727201462,0.023136930540204048,-0.014250818639993668,-0.0633529666222632,-9.864329451030493,-0.19426157572101801
1652274613234808064,0.022177277132868767,0.02307109162211418,-0.016759531572461128,-0.08791239360296167,-9.83339304549694,-0.14645726582375354
1652274613238809344,0.018902210518717766,0.023730121552944183,-0.015469241887331009,-0.06117970510325394,-9.848606981241703,-0.1132319730348885
1652274613241807872,0.014016630128026009,0.018911100924015045,-0.01663398928940296,-0.021624697836209086,-9.873785846161843,-0.08706748547772876
1652274613245808128,0.010163867846131325,0.019144276157021523,-0.01667824573814869,-0.02116859723231755,-9.839013807988167,-0.12761948615917934
1652274613248805376,0.007949035614728928,0.017820382490754128,-0.014322765171527863,-0.010328252912301104,-9.827940625309944,-0.17147718645567073
1652274613251805440,0.005358923692256212,0.017868326976895332,-0.013329477049410343,0.006682407794057508,-9.830583833295107,-0.18735844526905565
1652274613254802432,0.0023845939431339502,0.01954224705696106,-0.011952975764870644,0.029413483982323668,-9.85118706086278,-0.19867498998278751
1652274613257802752,0.0012061818270012736,0.01814735308289528,-0.010226876474916935,-0.010090830852166981,-9.838639713978766,-0.2102611088855192
1652274613260800256,-0.0006305894930846989,0.019626878201961517,-0.008356738835573196,-0.013235700182575964,-9.806727156889439,-0.17959615897079928
